TimeStamp,myo_emg0,myo_emg1,myo_emg2,myo_emg3,myo_emg4,myo_emg5,myo_emg6,myo_emg7,myo_avg,myo_quatw,myo_quatx,myo_quaty,myo_quatz,myo_accx,myo_accy,myo_accz,myo_gyrox,myo_gyroy,myo_gyroz,dummy,dummy,myo_max,myo_reset
0.00147223,-3,0,-1,-3,-2,-1,-2,-3,0,0.94763184,0.12347412,0.04058838,0.29156494,-0.00390625,0.25048828,0.9375,1.8125,-1.625,0.4375,1.16315E+33,1.16315E+33,0,
0.0131278,-4,-7,1,-1,-4,-3,-1,-3,0,0.94763184,0.12347412,0.04058838,0.29156494,-0.00390625,0.25048828,0.9375,1.8125,-1.625,0.4375,1.16315E+33,1.16315E+33,0,
0.02388692,1,-2,14,1,1,0,-1,-2,0,0.94763184,0.12335205,0.04022217,0.29174805,-0.00439453,0.24951172,0.9296875,-1.375,-1.6875,0.9375,1.16315E+33,1.16315E+33,0,
0.03482461,-7,-16,-1,-4,-3,-1,-1,-4,0,0.94763184,0.12335205,0.04022217,0.29174805,-0.00439453,0.24951172,0.9296875,-1.375,-1.6875,0.9375,1.16315E+33,1.16315E+33,0,
0.045609,-3,-2,2,-1,0,0,-3,-3,0,0.94763184,0.12298584,0.03985596,0.29199219,-0.00195312,0.2421875,0.93701172,-2.5625,-1.1875,1.4375,1.16315E+33,1.16315E+33,0,
0.0564177,-4,27,-12,0,-1,0,0,-1,0,0.94763184,0.12298584,0.03985596,0.29199219,-0.00195312,0.2421875,0.93701172,-2.5625,-1.1875,1.4375,1.16315E+33,1.16315E+33,0,
0.06683588,-4,27,-12,0,-1,0,0,-1,0,0.9475708,0.12255859,0.03973389,0.29223633,-0.00732422,0.24316406,0.9296875,-2.3125,0.0625,1.5625,1.16315E+33,1.16315E+33,0,
0.07723832,4,19,5,1,-2,-1,-1,1,0,0.9475708,0.12255859,0.03973389,0.29223633,-0.00732422,0.24316406,0.9296875,-2.3125,0.0625,1.5625,1.16315E+33,1.16315E+33,0,
0.08773136,0,0,-7,-4,0,-2,-2,0,0,0.94750977,0.12219238,0.04003906,0.2925415,-0.02197266,0.24365234,0.93554688,-1.375,1.375,1.8125,1.16315E+33,1.16315E+33,0,
0.09824419,1,-6,-1,1,1,0,3,2,0,0.94750977,0.12219238,0.04003906,0.2925415,-0.02197266,0.24365234,0.93554688,-1.375,1.375,1.8125,1.16315E+33,1.16315E+33,0,
0.10865116,1,-6,-1,1,1,0,3,2,0,0.94750977,0.12219238,0.04003906,0.2925415,-0.02197266,0.24365234,0.93554688,-1.375,1.375,1.8125,1.16315E+33,1.16315E+33,0,
0.11902404,1,-6,-1,1,1,0,3,2,0,0.94750977,0.12219238,0.04003906,0.2925415,-0.02197266,0.24365234,0.93554688,-1.375,1.375,1.8125,1.16315E+33,1.16315E+33,0,
0.12938404,1,-6,-1,1,1,0,3,2,0,0.9473877,0.12207031,0.04077148,0.29284668,-0.04052734,0.24414062,0.93408203,0.6875,2,1.875,1.16315E+33,1.16315E+33,0,
0.1398313,3,-5,3,1,-1,1,-1,0,0,0.94732666,0.12219238,0.04156494,0.29302979,-0.04101562,0.25488281,0.9453125,1.875,1.8125,1.1875,1.16315E+33,1.16315E+33,0,
0.15036273,-2,6,1,-1,0,1,1,-1,0,0.94732666,0.12219238,0.04156494,0.29302979,-0.04101562,0.25488281,0.9453125,1.875,1.8125,1.1875,1.16315E+33,1.16315E+33,0,
0.16085362,-2,-14,-3,-3,-1,-2,-1,-3,0,0.94726562,0.12213135,0.04211426,0.29309082,-0.04492188,0.24121094,0.95166016,1.1875,0.625,0.625,1.16315E+33,1.16315E+33,0,
0.17144299,-4,-3,2,-1,2,-2,-1,0,0,0.94726562,0.12219238,0.04211426,0.29296875,-0.01806641,0.23095703,0.93798828,1.5,-0.75,-0.4375,1.16315E+33,1.16315E+33,0,
0.18198729,0,11,3,-3,-2,-1,-2,-3,0,0.94726562,0.12219238,0.04211426,0.29296875,-0.01806641,0.23095703,0.93798828,1.5,-0.75,-0.4375,1.16315E+33,1.16315E+33,0,
0.19248986,0,1,1,2,0,1,0,-1,0,0.94732666,0.12231445,0.04180908,0.29290771,0.00146484,0.24267578,0.93066406,0.25,-1.5,-0.375,1.16315E+33,1.16315E+33,0,
0.20295548,3,-9,-3,-3,0,-1,-3,-2,0,0.94732666,0.12231445,0.04180908,0.29290771,0.00146484,0.24267578,0.93066406,0.25,-1.5,-0.375,1.16315E+33,1.16315E+33,0,
0.21338916,0,-9,-1,-2,2,-1,-1,0,0,0.9473877,0.12182617,0.04138184,0.29290771,0.00488281,0.24316406,0.921875,-3.5,-0.75,-0.25,1.16315E+33,1.16315E+33,0,
0.22380185,-3,-10,1,0,-2,2,1,-1,0,0.94750977,0.12091064,0.04095459,0.29302979,0.00537109,0.23095703,0.92675781,-4.9375,0.1875,0.3125,1.16315E+33,1.16315E+33,0,
0.23428607,-4,9,4,-2,0,0,-1,0,0,0.94750977,0.12091064,0.04095459,0.29302979,0.00537109,0.23095703,0.92675781,-4.9375,0.1875,0.3125,1.16315E+33,1.16315E+33,0,
0.24471092,-4,9,4,-2,0,0,-1,0,0,0.94750977,0.12091064,0.04095459,0.29302979,0.00537109,0.23095703,0.92675781,-4.9375,0.1875,0.3125,1.16315E+33,1.16315E+33,0,
0.25506067,3,5,-8,0,-2,-1,1,2,0,0.94744873,0.1206665,0.04095459,0.29327393,0.00537109,0.23535156,0.92333984,-1,1.25,1,1.16315E+33,1.16315E+33,0,
0.2655232,-2,-3,0,-1,-1,-1,-1,-1,0,0.94726562,0.12097168,0.0413208,0.29364014,-0.00439453,0.24169922,0.92431641,2.125,2,2.25,1.16315E+33,1.16315E+33,0,
0.27601027,1,-2,-3,-4,-4,-2,0,0,0,0.94708252,0.12121582,0.04168701,0.29418945,-0.00732422,0.23583984,0.92675781,2.625,2,2.875,1.16315E+33,1.16315E+33,0,
0.28645134,1,2,0,1,-2,-2,1,2,0,0.94708252,0.12121582,0.04168701,0.29418945,-0.00732422,0.23583984,0.92675781,2.625,2,2.875,1.16315E+33,1.16315E+33,0,
0.29685235,3,0,0,1,0,-2,-1,-1,0,0.94708252,0.12121582,0.04168701,0.29418945,-0.00732422,0.23583984,0.92675781,2.625,2,2.875,1.16315E+33,1.16315E+33,0,
0.30726647,0,-2,3,0,1,1,2,0,0,0.94683838,0.12176514,0.04217529,0.2946167,-0.01953125,0.24072266,0.93261719,4.1875,1.25,2.6875,1.16315E+33,1.16315E+33,0,
0.31776881,-1,0,5,0,0,-1,0,2,0,0.94665527,0.12231445,0.04266357,0.29486084,-0.03320312,0.25830078,0.93066406,3,0.4375,1.875,1.16315E+33,1.16315E+33,0,
0.32829142,6,0,14,2,0,-2,-2,2,0,0.94665527,0.12231445,0.04266357,0.29486084,-0.03320312,0.25830078,0.93066406,3,0.4375,1.875,1.16315E+33,1.16315E+33,0,
0.33872581,1,8,-15,-3,-2,2,0,-3,0,0.94659424,0.12255859,0.04284668,0.29498291,-0.03320312,0.25927734,0.93359375,0.8125,-1,1.0625,1.16315E+33,1.16315E+33,0,
0.34922028,0,0,-6,0,0,-2,-3,-2,0,0.94659424,0.12255859,0.04284668,0.29498291,-0.03320312,0.25927734,0.93359375,0.8125,-1,1.0625,1.16315E+33,1.16315E+33,0,
0.35965157,2,-8,0,-2,-1,-1,-1,-2,0,0.94659424,0.12249756,0.04278564,0.29504395,-0.02685547,0.25341797,0.92285156,-1,-1.4375,0.8125,1.16315E+33,1.16315E+33,0,
0.37011719,-2,11,-1,-3,-2,2,-4,-1,0,0.94659424,0.12249756,0.04278564,0.29504395,-0.02685547,0.25341797,0.92285156,-1,-1.4375,0.8125,1.16315E+33,1.16315E+33,0,
0.38051724,1,1,-3,-1,-1,0,0,1,0,0.94659424,0.12237549,0.04260254,0.29504395,-0.01660156,0.25195312,0.92529297,-1.4375,-1.625,0.3125,1.16315E+33,1.16315E+33,0,
0.39095616,-1,7,2,1,-1,0,-1,0,0,0.94659424,0.12237549,0.04260254,0.29504395,-0.01660156,0.25195312,0.92529297,-1.4375,-1.625,0.3125,1.16315E+33,1.16315E+33,0,
0.40136528,-1,7,2,1,-1,0,-1,0,0,0.94665527,0.12207031,0.04229736,0.29504395,-0.0078125,0.24121094,0.91552734,-1.9375,-1.0625,0,1.16315E+33,1.16315E+33,0,
0.41181231,-1,19,-6,-5,-3,-2,-1,-3,0,0.94665527,0.12207031,0.04229736,0.29504395,-0.0078125,0.24121094,0.91552734,-1.9375,-1.0625,0,1.16315E+33,1.16315E+33,0,
0.42231321,-3,3,-3,-1,-2,-2,-2,-3,0,0.94665527,0.12207031,0.04229736,0.29504395,-0.0078125,0.24121094,0.91552734,-1.9375,-1.0625,0,1.16315E+33,1.16315E+33,0,
0.43271208,-2,13,-2,0,-2,-2,0,-2,0,0.94665527,0.12188721,0.04223633,0.29504395,-0.00976562,0.24316406,0.92529297,-1.125,-0.4375,0,1.16315E+33,1.16315E+33,0,
0.44313622,4,-7,-8,1,-1,0,2,2,0,0.94665527,0.12188721,0.04217529,0.29504395,-0.00439453,0.24560547,0.93505859,0.0625,-0.4375,0.3125,1.16315E+33,1.16315E+33,0,
0.45357704,3,-3,3,2,-1,0,0,3,0,0.94665527,0.12188721,0.04217529,0.29504395,-0.00439453,0.24560547,0.93505859,0.0625,-0.4375,0.3125,1.16315E+33,1.16315E+33,0,
0.46396565,2,3,-3,-1,2,1,1,-1,0,0.94665527,0.12194824,0.04223633,0.29504395,-0.01025391,0.25195312,0.9296875,0.625,-0.625,0.4375,1.16315E+33,1.16315E+33,0,
0.47443891,-1,-1,3,2,1,1,12,2,0,0.94665527,0.12194824,0.04223633,0.29504395,-0.01025391,0.25195312,0.9296875,0.625,-0.625,0.4375,1.16315E+33,1.16315E+33,0,
0.48488069,-7,-6,-5,-1,-2,0,-2,-3,0,0.94665527,0.12194824,0.04223633,0.29504395,-0.00976562,0.25244141,0.91748047,-0.875,-0.375,0.5,1.16315E+33,1.16315E+33,0,
0.49533439,3,4,5,-1,-4,-4,-4,-2,0,0.94665527,0.12194824,0.04223633,0.29504395,-0.00976562,0.25244141,0.91748047,-0.875,-0.375,0.5,1.16315E+33,1.16315E+33,0,
0.50572753,6,10,-2,0,1,1,-1,-1,0,0.94671631,0.12145996,0.04223633,0.29510498,-0.02392578,0.25195312,0.93408203,-2.9375,-0.0625,0.25,1.16315E+33,1.16315E+33,0,
0.5161922,-4,-30,0,-1,0,-2,-2,-2,0,0.94671631,0.12145996,0.04229736,0.29510498,-0.02783203,0.24169922,0.93505859,-0.9375,-0.75,-0.125,1.16315E+33,1.16315E+33,0,
0.52665329,-2,-4,1,3,2,1,0,-1,0,0.94671631,0.12145996,0.04229736,0.29510498,-0.02783203,0.24169922,0.93505859,-0.9375,-0.75,-0.125,1.16315E+33,1.16315E+33,0,
0.53706455,3,-7,1,-3,-3,-4,-3,-3,0,0.94671631,0.12145996,0.04229736,0.29510498,-0.02783203,0.24169922,0.93505859,-0.9375,-0.75,-0.125,1.16315E+33,1.16315E+33,0,
0.54746604,-3,4,-18,-2,-2,-3,-3,-3,0,0.94677734,0.121521,0.04229736,0.29498291,-0.02832031,0.24072266,0.94335938,0.6875,-1.6875,-0.25,1.16315E+33,1.16315E+33,0,
0.5579555,-2,20,4,1,1,0,-2,-3,0,0.94677734,0.12164307,0.04217529,0.2947998,-0.01611328,0.23925781,0.92675781,1,-1.6875,-0.75,1.16315E+33,1.16315E+33,0,
0.56840014,-1,3,1,1,-1,0,-1,0,0,0.94677734,0.12164307,0.04217529,0.2947998,-0.01611328,0.23925781,0.92675781,1,-1.6875,-0.75,1.16315E+33,1.16315E+33,0,
0.57878184,2,-14,-15,-4,-1,0,-1,1,0,0.94683838,0.12164307,0.04199219,0.2946167,-0.00976562,0.25048828,0.91943359,-0.75,-1.125,-1.125,1.16315E+33,1.16315E+33,0,
0.589252,3,5,13,0,0,-2,4,3,0,0.94683838,0.12164307,0.04199219,0.2946167,-0.00976562,0.25048828,0.91943359,-0.75,-1.125,-1.125,1.16315E+33,1.16315E+33,0,
0.59969139,-1,6,2,0,-1,-1,-3,-1,0,0.94696045,0.12115479,0.04187012,0.29455566,-0.01171875,0.24462891,0.92724609,-3.125,-0.375,-0.6875,1.16315E+33,1.16315E+33,0,
0.61015153,-1,6,2,0,-1,-1,-3,-1,0,0.94696045,0.12115479,0.04187012,0.29455566,-0.01171875,0.24462891,0.92724609,-3.125,-0.375,-0.6875,1.16315E+33,1.16315E+33,0,
0.62050152,0,13,8,0,-3,0,-1,-1,0,0.94696045,0.12115479,0.04187012,0.29455566,-0.01171875,0.24462891,0.92724609,-3.125,-0.375,-0.6875,1.16315E+33,1.16315E+33,0,
0.63090134,-5,-13,-6,-3,-1,-1,-1,-1,0,0.94708252,0.12060547,0.04168701,0.29443359,-0.00390625,0.22753906,0.93066406,-2.375,0.25,-0.8125,1.16315E+33,1.16315E+33,0,
0.64136362,-3,-15,-21,-4,-1,-1,-4,-2,0,0.94708252,0.12060547,0.04168701,0.29443359,-0.00097656,0.24316406,0.92578125,0.25,0.5625,-0.5,1.16315E+33,1.16315E+33,0,
0.65181041,-3,17,5,1,-1,-2,-2,-2,0,0.94708252,0.12060547,0.04168701,0.29443359,-0.00097656,0.24316406,0.92578125,0.25,0.5625,-0.5,1.16315E+33,1.16315E+33,0,
0.66230893,-3,17,5,1,-1,-2,-2,-2,0,0.94708252,0.12060547,0.04168701,0.29443359,-0.00341797,0.24072266,0.92138672,-0.75,0.9375,0.3125,1.16315E+33,1.16315E+33,0,
0.67298222,-3,17,5,1,-1,-2,-2,-2,0,0.94708252,0.12060547,0.04168701,0.29443359,-0.00341797,0.24072266,0.92138672,-0.75,0.9375,0.3125,1.16315E+33,1.16315E+33,0,
0.68340182,0,4,0,-1,-1,1,-1,1,0,0.94708252,0.12060547,0.04168701,0.29443359,-0.01074219,0.22949219,0.93017578,-1,0.75,0.75,1.16315E+33,1.16315E+33,0,
0.69391799,0,-8,5,-1,-1,-1,-7,-1,0,0.94708252,0.12060547,0.04168701,0.29443359,-0.01074219,0.22949219,0.93017578,-1,0.75,0.75,1.16315E+33,1.16315E+33,0,
0.70431113,1,0,3,-1,0,-2,-3,-2,0,0.94708252,0.12054443,0.04168701,0.29443359,-0.01416016,0.23681641,0.92724609,-0.25,0.4375,0.4375,1.16315E+33,1.16315E+33,0,
0.7147696,1,0,3,-1,0,-2,-3,-2,0,0.94708252,0.12054443,0.04168701,0.29443359,-0.01416016,0.23681641,0.92724609,-0.25,0.4375,0.4375,1.16315E+33,1.16315E+33,0,
0.72512484,-2,11,8,3,2,0,0,0,0,0.94708252,0.12030029,0.04162598,0.29449463,-0.00537109,0.24267578,0.92919922,-1.625,0.25,0.3125,1.16315E+33,1.16315E+33,0,
0.73560524,-1,-7,1,-5,-3,0,2,-4,0,0.94708252,0.12030029,0.04162598,0.29449463,-0.00537109,0.24267578,0.92919922,-1.625,0.25,0.3125,1.16315E+33,1.16315E+33,0,
0.74598527,0,8,-4,-2,-1,-2,1,-2,0,0.94708252,0.11999512,0.04156494,0.2946167,-0.00927734,0.24169922,0.9296875,-2,0.3125,0.5,1.16315E+33,1.16315E+33,0,
0.75646949,4,2,9,0,-1,0,4,1,0,0.94708252,0.11968994,0.04162598,0.29486084,-0.01660156,0.24707031,0.93164062,-1.875,0.375,1.25,1.16315E+33,1.16315E+33,0,
0.76706266,4,2,9,0,-1,0,4,1,0,0.94708252,0.11968994,0.04162598,0.29486084,-0.01660156,0.24707031,0.93164062,-1.875,0.375,1.25,1.16315E+33,1.16315E+33,0,
0.77771282,2,-8,-7,-1,3,0,2,2,0,0.94708252,0.11968994,0.04162598,0.29486084,-0.01660156,0.24707031,0.93164062,-1.875,0.375,1.25,1.16315E+33,1.16315E+33,0,
0.78875709,2,-8,-7,-1,3,0,2,2,0,0.94702148,0.11938477,0.04168701,0.29510498,-0.01660156,0.23242188,0.93115234,-1.0625,0.375,1.625,1.16315E+33,1.16315E+33,0,
0.79950333,2,-8,-7,-1,3,0,2,2,0,0.94702148,0.11938477,0.04168701,0.29510498,-0.01660156,0.23242188,0.93115234,-1.0625,0.375,1.625,1.16315E+33,1.16315E+33,0,
0.81014109,-1,1,-3,-1,-3,-2,2,0,0,0.94702148,0.11938477,0.04168701,0.29510498,-0.01660156,0.23242188,0.93115234,-1.0625,0.375,1.625,1.16315E+33,1.16315E+33,0,
0.82088518,1,7,-3,0,0,-2,-1,0,0,0.94696045,0.1192627,0.04180908,0.29534912,-0.01855469,0.22705078,0.92675781,0.5,0.5,1.3125,1.16315E+33,1.16315E+33,0,
0.83175516,1,7,-3,0,0,-2,-1,0,0,0.94683838,0.1194458,0.04199219,0.29559326,-0.01806641,0.24658203,0.92626953,0.875,0.1875,1.375,1.16315E+33,1.16315E+33,0,
0.84268975,-2,25,-5,0,0,0,0,0,0,0.94677734,0.1192627,0.04199219,0.29577637,-0.02050781,0.24951172,0.93554688,-1.5625,-0.25,1.25,1.16315E+33,1.16315E+33,0,
0.85381055,-1,14,-5,3,-2,-2,-5,1,0,0.94677734,0.1192627,0.04199219,0.29577637,-0.02050781,0.24951172,0.93554688,-1.5625,-0.25,1.25,1.16315E+33,1.16315E+33,0,
0.86482811,-5,1,2,-1,-2,-2,-5,-2,0,0.94677734,0.11907959,0.04193115,0.29602051,-0.01953125,0.24462891,0.93017578,-1.625,-0.625,1.5,1.16315E+33,1.16315E+33,0,
0.87530231,-5,1,2,-1,-2,-2,-5,-2,0,0.94677734,0.11907959,0.04193115,0.29602051,-0.01953125,0.24462891,0.93017578,-1.625,-0.625,1.5,1.16315E+33,1.16315E+33,0,
0.8856535,4,1,0,-1,-1,-1,-1,-1,0,0.94671631,0.11895752,0.04199219,0.29626465,-0.02050781,0.23681641,0.92333984,-0.4375,-0.25,1.5,1.16315E+33,1.16315E+33,0,
0.89608383,-2,-12,0,-2,2,1,3,0,0,0.94659424,0.11901855,0.04211426,0.29650879,-0.01171875,0.24316406,0.92578125,0.3125,0.4375,1.375,1.16315E+33,1.16315E+33,0,
0.90659952,-2,-4,-2,2,1,-1,-1,-1,0,0.94659424,0.11901855,0.04211426,0.29650879,-0.01171875,0.24316406,0.92578125,0.3125,0.4375,1.375,1.16315E+33,1.16315E+33,0,
0.91704273,1,-6,5,3,1,-2,-2,-1,0,0.94659424,0.11901855,0.04211426,0.29650879,-0.01171875,0.24316406,0.92578125,0.3125,0.4375,1.375,1.16315E+33,1.16315E+33,0,
0.92796326,0,3,1,0,1,0,-2,0,0,0.9465332,0.11907959,0.04229736,0.29669189,-0.02099609,0.25292969,0.94824219,0,0.4375,1.25,1.16315E+33,1.16315E+33,0,
0.93842506,-2,-9,-2,-2,-2,-1,1,-2,0,0.94647217,0.11895752,0.04229736,0.29681396,-0.01513672,0.26171875,0.93603516,-2,-0.0625,0.8125,1.16315E+33,1.16315E+33,0,
0.94894862,-1,-5,7,1,0,1,8,3,0,0.94647217,0.11895752,0.04229736,0.29681396,-0.01513672,0.26171875,0.93603516,-2,-0.0625,0.8125,1.16315E+33,1.16315E+33,0,
0.95937729,4,-2,3,1,0,1,-1,-2,0,0.94647217,0.11865234,0.0423584,0.29699707,-0.01416016,0.25097656,0.91943359,-2.6875,0.375,1,1.16315E+33,1.16315E+33,0,
0.96989465,-4,-11,-3,-3,0,0,-5,-4,0,0.94647217,0.11865234,0.0423584,0.29699707,-0.01416016,0.25097656,0.91943359,-2.6875,0.375,1,1.16315E+33,1.16315E+33,0,
0.98042345,-4,5,-4,-3,-3,-4,-1,-1,0,0.94647217,0.11865234,0.0423584,0.29699707,-0.01416016,0.25097656,0.91943359,-2.6875,0.375,1,1.16315E+33,1.16315E+33,0,
0.99088192,3,-1,-7,0,0,-1,-3,0,0,0.94647217,0.11865234,0.0423584,0.29699707,-0.02001953,0.24121094,0.92822266,-0.75,0.9375,0.625,1.16315E+33,1.16315E+33,0,
1.00133801,2,4,2,2,0,-2,-2,-3,0,0.94647217,0.11865234,0.04266357,0.29705811,-0.015625,0.23974609,0.94091797,0.5625,1.125,0.25,1.16315E+33,1.16315E+33,0,
1.01181698,1,-1,-1,-2,-3,-2,-4,-2,0,0.94647217,0.11865234,0.04266357,0.29705811,-0.015625,0.23974609,0.94091797,0.5625,1.125,0.25,1.16315E+33,1.16315E+33,0,
1.02240539,-4,1,4,-2,2,2,-1,-1,0,0.94647217,0.11865234,0.04266357,0.29705811,-0.01074219,0.24267578,0.93212891,0.6875,0.5,-0.1875,1.16315E+33,1.16315E+33,0,
1.03293085,-2,23,5,-2,-5,-2,-3,-4,0,0.94647217,0.11865234,0.04266357,0.29705811,-0.01074219,0.24267578,0.93212891,0.6875,0.5,-0.1875,1.16315E+33,1.16315E+33,0,
1.04342246,-2,-1,-4,0,0,1,0,1,0,0.94647217,0.11871338,0.04266357,0.29705811,-0.02246094,0.26123047,0.92480469,0,-0.125,0,1.16315E+33,1.16315E+33,0,
1.05392337,-3,-6,-6,-2,0,-2,-1,-2,0,0.94647217,0.11871338,0.04266357,0.29705811,-0.02246094,0.26123047,0.92480469,0,-0.125,0,1.16315E+33,1.16315E+33,0,
1.06442714,1,1,-2,-1,-1,-2,-9,-3,0,0.9465332,0.11834717,0.04272461,0.29693604,-0.02392578,0.25,0.92529297,-2.75,-0.375,-0.5,1.16315E+33,1.16315E+33,0,
1.07502627,-5,-18,-9,1,-2,-1,-2,-3,0,0.9465332,0.11834717,0.04272461,0.29693604,-0.02392578,0.25,0.92529297,-2.75,-0.375,-0.5,1.16315E+33,1.16315E+33,0,
1.08544397,-5,-18,-9,1,-2,-1,-2,-3,0,0.94665527,0.11779785,0.04260254,0.29681396,-0.01757812,0.22753906,0.93408203,-2.4375,-0.125,-1.0625,1.16315E+33,1.16315E+33,0,
1.09586191,4,-3,2,-1,-1,-1,-1,0,0,0.94665527,0.11779785,0.04260254,0.29681396,-0.01757812,0.22753906,0.93408203,-2.4375,-0.125,-1.0625,1.16315E+33,1.16315E+33,0,
1.10627484,-3,-7,-5,-3,0,-1,1,0,0,0.94671631,0.11761475,0.0425415,0.29663086,-0.00976562,0.22216797,0.93994141,0,0,-1.125,1.16315E+33,1.16315E+33,0,
1.11668825,1,-1,0,1,-1,0,-1,0,0,0.94671631,0.11761475,0.0425415,0.29663086,-0.00976562,0.22216797,0.93994141,0,0,-1.125,1.16315E+33,1.16315E+33,0,
1.12711954,1,-1,0,1,-1,0,-1,0,0,0.94671631,0.11791992,0.04266357,0.29656982,-0.00683594,0.24560547,0.93310547,1.4375,0,-0.4375,1.16315E+33,1.16315E+33,0,
1.1375196,2,10,3,1,-2,-1,-3,1,0,0.94671631,0.11791992,0.04266357,0.29656982,-0.00683594,0.24560547,0.93310547,1.4375,0,-0.4375,1.16315E+33,1.16315E+33,0,
1.14791656,-3,-7,-1,-1,-2,-1,-1,-3,0,0.94671631,0.11767578,0.04266357,0.29650879,-0.01757812,0.24853516,0.91796875,-2.3125,0.25,-0.25,1.16315E+33,1.16315E+33,0,
1.15837121,0,-3,4,-2,2,-1,1,1,0,0.94683838,0.11663818,0.04272461,0.29656982,-0.01806641,0.22558594,0.92236328,-5,1.3125,-0.125,1.16315E+33,1.16315E+33,0,
1.16885185,1,21,4,-1,-1,0,1,-2,0,0.94683838,0.11663818,0.04272461,0.29656982,-0.01806641,0.22558594,0.92236328,-5,1.3125,-0.125,1.16315E+33,1.16315E+33,0,
1.1793654,-4,-16,-2,-5,0,-2,-2,-5,0,0.94689941,0.11584473,0.04284668,0.29663086,-0.02539062,0.20898438,0.94433594,-2.25,1.25,0.25,1.16315E+33,1.16315E+33,0,
1.18994498,0,0,-4,-2,0,1,-1,-1,0,0.94689941,0.11584473,0.04284668,0.29663086,-0.02539062,0.20898438,0.94433594,-2.25,1.25,0.25,1.16315E+33,1.16315E+33,0,
1.2004199,1,3,5,-2,-2,0,14,2,0,0.94689941,0.1159668,0.04302979,0.29669189,-0.01611328,0.22851562,0.93359375,1.375,0.625,0.0625,1.16315E+33,1.16315E+33,0,
1.21091342,-2,-2,3,0,-3,-2,-1,-1,0,0.94689941,0.1159668,0.04302979,0.29669189,-0.01611328,0.22851562,0.93359375,1.375,0.625,0.0625,1.16315E+33,1.16315E+33,0,
1.2213912,0,-5,-9,-3,-2,-2,-5,-1,0,0.94689941,0.1159668,0.04302979,0.29669189,-0.01611328,0.22851562,0.93359375,1.375,0.625,0.0625,1.16315E+33,1.16315E+33,0,
1.23185849,0,-5,-9,-3,-2,-2,-5,-1,0,0.94689941,0.1159668,0.04302979,0.29669189,-0.01611328,0.22851562,0.93359375,1.375,0.625,0.0625,1.16315E+33,1.16315E+33,0,
1.24243855,-2,1,4,0,1,-1,1,0,0,0.94689941,0.1159668,0.04309082,0.29669189,-0.01611328,0.24755859,0.92626953,-0.1875,0.6875,0.75,1.16315E+33,1.16315E+33,0,
1.25296521,-1,0,-3,1,-1,-2,-2,-2,0,0.94689941,0.11535645,0.04302979,0.29693604,-0.01611328,0.24414062,0.93164062,-4.0625,0.875,1.3125,1.16315E+33,1.16315E+33,0,
1.26343226,-1,0,-3,1,-1,-2,-2,-2,0,0.94689941,0.11535645,0.04302979,0.29693604,-0.01611328,0.24414062,0.93164062,-4.0625,0.875,1.3125,1.16315E+33,1.16315E+33,0,
1.27379179,2,-3,-1,0,2,2,0,-2,0,0.94689941,0.11431885,0.04290771,0.29718018,-0.02294922,0.21679688,0.94677734,-4.75,0.4375,1.25,1.16315E+33,1.16315E+33,0,
1.28426933,-1,-8,15,2,0,0,-1,-1,0,0.94696045,0.11425781,0.04296875,0.29718018,-0.02783203,0.21728516,0.93701172,-0.125,0.375,0.8125,1.16315E+33,1.16315E+33,0,
1.29469538,-1,-8,15,2,0,0,-1,-1,0,0.94696045,0.11425781,0.04296875,0.29718018,-0.02783203,0.21728516,0.93701172,-0.125,0.375,0.8125,1.16315E+33,1.16315E+33,0,
1.3050642,-4,-7,-4,1,-1,-3,-2,0,0,0.94677734,0.11474609,0.04327393,0.29742432,-0.0234375,0.24755859,0.92236328,1.9375,0.5625,1.3125,1.16315E+33,1.16315E+33,0,
1.31559014,-4,-7,-4,1,-1,-3,-2,0,0,0.94677734,0.11474609,0.04327393,0.29742432,-0.0234375,0.24755859,0.92236328,1.9375,0.5625,1.3125,1.16315E+33,1.16315E+33,0,
1.32601428,1,8,-4,2,1,0,-1,-1,0,0.94665527,0.11462402,0.04364014,0.29779053,-0.02587891,0.25048828,0.93017578,-1.1875,1.375,2.25,1.16315E+33,1.16315E+33,0,
1.33652878,1,11,0,-4,-3,-3,-4,-2,0,0.94665527,0.11462402,0.04364014,0.29779053,-0.02587891,0.25048828,0.93017578,-1.1875,1.375,2.25,1.16315E+33,1.16315E+33,0,
1.34700561,1,4,-3,0,0,0,0,1,0,0.94665527,0.11419678,0.04388428,0.2980957,-0.03271484,0.22509766,0.94140625,-1.4375,1.1875,1.625,1.16315E+33,1.16315E+33,0,
1.35756969,-5,-5,-12,-3,-1,-2,0,-2,0,0.94665527,0.11413574,0.04394531,0.2980957,-0.02978516,0.22753906,0.94140625,0.6875,0.4375,0.4375,1.16315E+33,1.16315E+33,0,
1.36808348,-2,-14,4,-1,0,-2,-1,1,0,0.94665527,0.11413574,0.04394531,0.2980957,-0.02978516,0.22753906,0.94140625,0.6875,0.4375,0.4375,1.16315E+33,1.16315E+33,0,
1.37854576,-2,-14,4,-1,0,-2,-1,1,0,0.94665527,0.11413574,0.04394531,0.2980957,-0.02978516,0.22753906,0.94140625,0.6875,0.4375,0.4375,1.16315E+33,1.16315E+33,0,
1.38892508,-1,9,-4,-1,0,2,-1,1,0,0.94659424,0.11450195,0.04412842,0.2980957,-0.02441406,0.24511719,0.93603516,1.625,0,0.1875,1.16315E+33,1.16315E+33,0,
1.39939356,-3,-7,-10,-3,-3,-3,-1,0,0,0.9465332,0.11437988,0.04418945,0.29821777,-0.02734375,0.24121094,0.93652344,-0.9375,-0.25,1,1.16315E+33,1.16315E+33,0,
1.40985107,0,9,-1,-2,0,1,-1,-1,0,0.9465332,0.11437988,0.04418945,0.29821777,-0.02734375,0.24121094,0.93652344,-0.9375,-0.25,1,1.16315E+33,1.16315E+33,0,
1.42027426,1,11,3,-2,-1,-5,-1,-3,0,0.9465332,0.11395264,0.04425049,0.29846191,-0.02441406,0.23242188,0.93798828,-2.375,0.5,1.1875,1.16315E+33,1.16315E+33,0,
1.43073153,0,7,1,-3,-4,-3,-3,0,0,0.9465332,0.11395264,0.04425049,0.29846191,-0.02441406,0.23242188,0.93798828,-2.375,0.5,1.1875,1.16315E+33,1.16315E+33,0,
1.44114184,0,7,1,-3,-4,-3,-3,0,0,0.9465332,0.11364746,0.04443359,0.29858398,-0.02636719,0.22998047,0.93554688,-1.1875,1,0.75,1.16315E+33,1.16315E+33,0,
1.45155954,4,-12,1,3,0,2,0,1,0,0.9465332,0.11364746,0.04443359,0.29858398,-0.02636719,0.22998047,0.93554688,-1.1875,1,0.75,1.16315E+33,1.16315E+33,0,
1.4619956,2,1,-11,-1,1,0,-1,1,0,0.94647217,0.1137085,0.0447998,0.29870605,-0.02539062,0.23730469,0.93066406,0.4375,1.3125,0.75,1.16315E+33,1.16315E+33,0,
1.47254825,2,3,11,1,-1,-1,1,-1,0,0.94647217,0.1137085,0.0447998,0.29870605,-0.02539062,0.23730469,0.93066406,0.4375,1.3125,0.75,1.16315E+33,1.16315E+33,0,
1.48301387,-3,-5,3,0,-1,1,2,-3,0,0.9463501,0.11376953,0.04504395,0.29888916,-0.02490234,0.23486328,0.93017578,0.6875,0.6875,1,1.16315E+33,1.16315E+33,0,
1.49353623,-3,-5,3,0,-1,1,2,-3,0,0.9463501,0.11376953,0.04504395,0.29888916,-0.02490234,0.23486328,0.93017578,0.6875,0.6875,1,1.16315E+33,1.16315E+33,0,
1.5039866,2,4,11,-3,-3,-2,0,-3,0,0.94628906,0.11352539,0.04528809,0.2991333,-0.02734375,0.23388672,0.91992188,-1.3125,1.25,1.375,1.16315E+33,1.16315E+33,0,
1.51453876,0,15,2,1,-1,-1,-3,-1,0,0.94628906,0.11315918,0.04541016,0.29937744,-0.01708984,0.22802734,0.92089844,-1.75,1.25,1.3125,1.16315E+33,1.16315E+33,0,
1.52505517,-6,-10,-4,-4,-4,-2,-3,-4,0,0.94628906,0.11315918,0.04541016,0.29937744,-0.01708984,0.22802734,0.92089844,-1.75,1.25,1.3125,1.16315E+33,1.16315E+33,0,
1.53552651,-6,-10,-4,-4,-4,-2,-3,-4,0,0.94628906,0.11315918,0.04541016,0.29937744,-0.01708984,0.22802734,0.92089844,-1.75,1.25,1.3125,1.16315E+33,1.16315E+33,0,
1.54594421,1,-5,-2,0,1,2,0,0,0,0.94616699,0.11303711,0.0456543,0.29962158,-0.02880859,0.22802734,0.93066406,-0.1875,0.875,1.3125,1.16315E+33,1.16315E+33,0,
1.556499,3,-17,-3,4,1,-3,-11,-4,0,0.94616699,0.11303711,0.0456543,0.29962158,-0.02880859,0.22802734,0.93066406,-0.1875,0.875,1.3125,1.16315E+33,1.16315E+33,0,
1.56709862,-2,1,-4,-1,-1,2,0,2,0,0.94616699,0.11309814,0.0456543,0.29962158,-0.02685547,0.25195312,0.92382812,0.4375,0.125,0.875,1.16315E+33,1.16315E+33,0,
1.57828069,0,-15,-4,1,-2,0,0,-3,0,0.94616699,0.1126709,0.04559326,0.29986572,-0.02050781,0.25,0.90966797,-4.25,0.375,1.1875,1.16315E+33,1.16315E+33,0,
1.58914804,-4,0,8,0,1,-1,-2,-3,0,0.94616699,0.1126709,0.04559326,0.29986572,-0.02050781,0.25,0.90966797,-4.25,0.375,1.1875,1.16315E+33,1.16315E+33,0,
1.60003161,-1,-18,-9,-8,-3,-3,0,-1,0,0.94616699,0.1114502,0.04559326,0.30023193,-0.02392578,0.24511719,0.92773438,-7.875,1.625,1.75,1.16315E+33,1.16315E+33,0,
1.61095309,3,4,-3,-2,-1,-2,3,1,0,0.94616699,0.1114502,0.04559326,0.30023193,-0.02392578,0.24511719,0.92773438,-7.875,1.625,1.75,1.16315E+33,1.16315E+33,0,
1.62176156,3,4,-3,-2,-1,-2,3,1,0,0.94622803,0.10998535,0.04559326,0.30065918,-0.02685547,0.21923828,0.93847656,-7.75,2.375,2,1.16315E+33,1.16315E+33,0,
1.63265681,0,5,0,-1,-1,-2,2,-1,0,0.94622803,0.10998535,0.04559326,0.30065918,-0.02685547,0.21923828,0.93847656,-7.75,2.375,2,1.16315E+33,1.16315E+33,0,
1.64339137,-1,5,-1,-1,-1,-3,-1,-3,0,0.94622803,0.10906982,0.04589844,0.30096436,-0.04345703,0.21777344,0.93554688,-3.875,1.8125,1.5,1.16315E+33,1.16315E+33,0,
1.6541791,2,5,1,-2,-1,0,-1,1,0,0.94622803,0.10906982,0.04589844,0.30096436,-0.04345703,0.21777344,0.93554688,-3.875,1.8125,1.5,1.16315E+33,1.16315E+33,0,
1.66488123,-2,8,-4,-3,-2,-4,-3,-3,0,0.94616699,0.10870361,0.04608154,0.30114746,-0.03515625,0.23193359,0.93847656,-2.25,0.75,1.1875,1.16315E+33,1.16315E+33,0,
1.67560697,1,-10,-2,-2,-3,1,-3,-2,0,0.94616699,0.10870361,0.04608154,0.30114746,-0.03515625,0.23193359,0.93847656,-2.25,0.75,1.1875,1.16315E+33,1.16315E+33,0,
1.68601012,-10,-20,-8,-3,-1,-3,-4,-7,0,0.94616699,0.10827637,0.04614258,0.3013916,-0.03466797,0.23193359,0.93261719,-3.0625,0.25,1.1875,1.16315E+33,1.16315E+33,0,
1.69642758,-10,-20,-8,-3,-1,-3,-4,-7,0,0.94616699,0.10754395,0.04620361,0.30157471,-0.04345703,0.22558594,0.92871094,-4,0.375,1.0625,1.16315E+33,1.16315E+33,0,
1.70684743,7,18,-3,3,-1,-1,-2,-1,0,0.94616699,0.10754395,0.04620361,0.30157471,-0.04345703,0.22558594,0.92871094,-4,0.375,1.0625,1.16315E+33,1.16315E+33,0,
1.71726227,0,-3,2,3,2,2,3,2,0,0.94616699,0.10754395,0.04620361,0.30157471,-0.04345703,0.22558594,0.92871094,-4,0.375,1.0625,1.16315E+33,1.16315E+33,0,
1.7276895,0,13,-3,-1,-1,-4,1,-1,0,0.94622803,0.10675049,0.04638672,0.30163574,-0.04638672,0.203125,0.93066406,-3.25,0.75,0.5625,1.16315E+33,1.16315E+33,0,
1.73817492,0,13,-3,-1,-1,-4,1,-1,0,0.94622803,0.10675049,0.04638672,0.30163574,-0.04638672,0.203125,0.93066406,-3.25,0.75,0.5625,1.16315E+33,1.16315E+33,0,
1.74870706,-1,12,-1,0,-1,-1,1,0,0,0.94628906,0.10626221,0.04644775,0.30157471,-0.03320312,0.20263672,0.93945312,-1.125,0.375,-0.4375,1.16315E+33,1.16315E+33,0,
1.7591188,2,-2,-3,-2,1,1,0,1,0,0.94628906,0.10626221,0.04644775,0.30157471,-0.03320312,0.20263672,0.93945312,-1.125,0.375,-0.4375,1.16315E+33,1.16315E+33,0,
1.76952934,5,8,-9,-2,-2,0,1,2,0,0.9463501,0.10626221,0.04620361,0.30145264,-0.01953125,0.22070312,0.93701172,-0.625,-1.5,-0.6875,1.16315E+33,1.16315E+33,0,
1.77998209,5,8,-9,-2,-2,0,1,2,0,0.94641113,0.10614014,0.0456543,0.30145264,-0.02001953,0.2265625,0.92382812,-2.3125,-2.6875,0.125,1.16315E+33,1.16315E+33,0,
1.79037356,0,-15,4,0,0,-2,0,0,0,0.94641113,0.10614014,0.0456543,0.30145264,-0.02001953,0.2265625,0.92382812,-2.3125,-2.6875,0.125,1.16315E+33,1.16315E+33,0,
1.80080032,3,-7,2,1,-2,-2,-1,-3,0,0.94647217,0.10577393,0.04498291,0.30157471,-0.01904297,0.21582031,0.92041016,-3.375,-2.6875,0.625,1.16315E+33,1.16315E+33,0,
1.81125164,3,-7,2,1,-2,-2,-1,-3,0,0.94647217,0.10577393,0.04498291,0.30157471,-0.01904297,0.21582031,0.92041016,-3.375,-2.6875,0.625,1.16315E+33,1.16315E+33,0,
1.82163048,-3,-14,-10,-3,1,1,1,-1,0,0.94647217,0.10534668,0.04455566,0.30163574,-0.02148438,0.19628906,0.9375,-1.75,-1.8125,0.5,1.16315E+33,1.16315E+33,0,
1.83215189,-1,14,-2,0,0,0,-1,-2,0,0.94647217,0.10534668,0.04455566,0.30163574,-0.02148438,0.19628906,0.9375,-1.75,-1.8125,0.5,1.16315E+33,1.16315E+33,0,
1.84269094,-1,14,-2,0,0,0,-1,-2,0,0.94647217,0.10534668,0.04455566,0.30163574,-0.02148438,0.19628906,0.9375,-1.75,-1.8125,0.5,1.16315E+33,1.16315E+33,0,
1.85305929,-6,3,-4,1,1,0,-1,-1,0,0.94647217,0.10668945,0.04425049,0.3013916,-0.01904297,0.2265625,0.94482422,4.6875,-2.625,-0.875,1.16315E+33,1.16315E+33,0,
1.86349154,2,-5,-2,-4,-3,-2,2,-2,0,0.94647217,0.10668945,0.04425049,0.3013916,-0.01904297,0.2265625,0.94482422,4.6875,-2.625,-0.875,1.16315E+33,1.16315E+33,0,
1.87391973,3,8,-5,-2,-1,-2,2,1,0,0.94647217,0.10668945,0.04425049,0.3013916,-0.01904297,0.2265625,0.94482422,4.6875,-2.625,-0.875,1.16315E+33,1.16315E+33,0,
1.88431954,0,-7,1,-2,-2,1,2,0,0,0.94647217,0.10717773,0.04370117,0.30114746,-0.01025391,0.24121094,0.94042969,0.3125,-3.25,-0.875,1.16315E+33,1.16315E+33,0,
1.89475513,-2,9,13,3,0,-2,-3,-3,0,0.94647217,0.10717773,0.04370117,0.30114746,-0.01025391,0.24121094,0.94042969,0.3125,-3.25,-0.875,1.16315E+33,1.16315E+33,0,
1.90519738,3,5,4,-3,-1,-1,-1,2,0,0.94659424,0.10687256,0.04309082,0.30102539,-0.01416016,0.23095703,0.93896484,-3.375,-2.875,-0.625,1.16315E+33,1.16315E+33,0,
1.91566348,3,5,4,-3,-1,-1,-1,2,0,0.94665527,0.10632324,0.04266357,0.30096436,-0.01855469,0.22216797,0.95214844,-3.8125,-1.375,-0.5625,1.16315E+33,1.16315E+33,0,
1.9260838,-3,2,1,-2,1,0,2,1,0,0.94665527,0.10632324,0.04266357,0.30096436,-0.01855469,0.22216797,0.95214844,-3.8125,-1.375,-0.5625,1.16315E+33,1.16315E+33,0,
1.93652129,-3,0,-6,3,-2,1,-1,-1,0,0.94665527,0.10632324,0.04266357,0.30096436,-0.01855469,0.22216797,0.95214844,-3.8125,-1.375,-0.5625,1.16315E+33,1.16315E+33,0,
1.94694209,3,6,-3,0,-1,0,0,0,0,0.94671631,0.10626221,0.04266357,0.30096436,-0.02246094,0.20214844,0.94921875,-0.125,-1,-0.5,1.16315E+33,1.16315E+33,0,
1.95739222,0,-3,1,-4,-2,3,-7,-2,0,0.94671631,0.10662842,0.04272461,0.30078125,-0.01513672,0.21484375,0.94726562,2.5,-0.625,-1.0625,1.16315E+33,1.16315E+33,0,
1.96788454,-3,-10,3,1,-1,-2,-1,-2,0,0.94671631,0.10662842,0.04272461,0.30078125,-0.01513672,0.21484375,0.94726562,2.5,-0.625,-1.0625,1.16315E+33,1.16315E+33,0,
1.97829509,-3,-5,2,-1,1,1,-2,-1,0,0.94671631,0.10699463,0.04272461,0.30059814,-0.01416016,0.23828125,0.93798828,0.625,-0.5625,-1.125,1.16315E+33,1.16315E+33,0,
1.98875999,-2,-4,2,4,-2,-2,0,4,0,0.94671631,0.10699463,0.04272461,0.30059814,-0.01416016,0.23828125,0.93798828,0.625,-0.5625,-1.125,1.16315E+33,1.16315E+33,0,
1.9991765,-6,8,-5,3,0,-3,-3,-5,0,0.94677734,0.10699463,0.04272461,0.30041504,-0.01953125,0.23876953,0.93505859,-1.375,-0.4375,-0.75,1.16315E+33,1.16315E+33,0,
2.00965953,3,-17,3,-1,-1,-2,2,-3,0,0.94677734,0.10699463,0.04272461,0.30041504,-0.01953125,0.23876953,0.93505859,-1.375,-0.4375,-0.75,1.16315E+33,1.16315E+33,0,
2.02008462,3,-17,3,-1,-1,-2,2,-3,0,0.94677734,0.10699463,0.04272461,0.30041504,-0.01953125,0.23876953,0.93505859,-1.375,-0.4375,-0.75,1.16315E+33,1.16315E+33,0,
2.03043818,0,-10,3,0,-2,-2,-1,1,0,0.94677734,0.10699463,0.04272461,0.30041504,-0.01855469,0.22070312,0.94238281,-0.5625,-0.0625,-0.9375,1.16315E+33,1.16315E+33,0,
2.04090047,0,1,-2,-6,-1,-1,-2,-1,0,0.94677734,0.10693359,0.04302979,0.300354,-0.02685547,0.20605469,0.94384766,1.375,1.125,-0.6875,1.16315E+33,1.16315E+33,0,
2.05136085,-2,0,1,-3,-3,-2,0,-1,0,0.94677734,0.10693359,0.04302979,0.300354,-0.02685547,0.20605469,0.94384766,1.375,1.125,-0.6875,1.16315E+33,1.16315E+33,0,
2.06176615,0,2,2,0,1,-1,0,-1,0,0.94677734,0.1072998,0.04351807,0.30010986,-0.02734375,0.23486328,0.93896484,1.9375,1.25,-1.375,1.16315E+33,1.16315E+33,0,
2.07244039,0,2,2,0,1,-1,0,-1,0,0.94677734,0.1072998,0.04351807,0.30010986,-0.02734375,0.23486328,0.93896484,1.9375,1.25,-1.375,1.16315E+33,1.16315E+33,0,
2.08278942,-1,5,5,1,-1,0,13,3,0,0.94689941,0.1072998,0.04382324,0.29980469,-0.03564453,0.23486328,0.95361328,-0.3125,0.3125,-1.9375,1.16315E+33,1.16315E+33,0,
2.09331036,4,-6,4,0,0,1,0,-1,0,0.94689941,0.1072998,0.04382324,0.29980469,-0.03564453,0.23486328,0.95361328,-0.3125,0.3125,-1.9375,1.16315E+33,1.16315E+33,0,
2.10377002,4,-6,4,0,0,1,0,-1,0,0.94689941,0.1072998,0.04382324,0.29980469,-0.03564453,0.23486328,0.95361328,-0.3125,0.3125,-1.9375,1.16315E+33,1.16315E+33,0,
2.11410904,-3,5,-9,-3,-6,-2,0,-4,0,0.94714355,0.10717773,0.04394531,0.2989502,-0.02880859,0.23535156,0.93115234,-1.0625,-0.875,-2.3125,1.16315E+33,1.16315E+33,0,
2.12457776,4,-7,1,3,0,-1,-1,3,0,0.94714355,0.10717773,0.04394531,0.2989502,-0.02880859,0.23535156,0.93115234,-1.0625,-0.875,-2.3125,1.16315E+33,1.16315E+33,0,
2.13500309,-1,7,0,-1,-1,-3,-1,0,0,0.94714355,0.10717773,0.04394531,0.2989502,-0.02880859,0.23535156,0.93115234,-1.0625,-0.875,-2.3125,1.16315E+33,1.16315E+33,0,
2.14541364,-1,12,-6,-3,-2,-1,-1,-2,0,0.94732666,0.10668945,0.04406738,0.29858398,-0.02880859,0.22509766,0.92578125,-3.25,0.5625,-2.0625,1.16315E+33,1.16315E+33,0,
2.15583253,0,4,-2,0,0,-1,-3,0,0,0.94744873,0.1060791,0.04431152,0.29833984,-0.02197266,0.20751953,0.92919922,-2.4375,2.0625,-1.875,1.16315E+33,1.16315E+33,0,
2.16626835,-1,-1,2,-1,1,-1,0,-1,0,0.94744873,0.1060791,0.04431152,0.29833984,-0.02197266,0.20751953,0.92919922,-2.4375,2.0625,-1.875,1.16315E+33,1.16315E+33,0,
2.17669845,-1,-1,2,-1,1,-1,0,-1,0,0.94744873,0.1060791,0.04431152,0.29833984,-0.02197266,0.20751953,0.92919922,-2.4375,2.0625,-1.875,1.16315E+33,1.16315E+33,0,
2.18704391,-2,-12,-4,0,-2,-1,-2,-1,0,0.94750977,0.10595703,0.0446167,0.2980957,-0.01611328,0.21484375,0.93554688,0.25,1.9375,-1.8125,1.16315E+33,1.16315E+33,0,
2.19749618,3,10,-8,-1,0,0,2,1,0,0.9475708,0.10620117,0.0447998,0.29785156,-0.01855469,0.22558594,0.93310547,1,0.75,-1.75,1.16315E+33,1.16315E+33,0,
2.20799112,-4,-16,-1,-2,-3,-2,1,-1,0,0.9475708,0.10620117,0.0447998,0.29785156,-0.01855469,0.22558594,0.93310547,1,0.75,-1.75,1.16315E+33,1.16315E+33,0,
2.21842575,0,12,-5,-3,-2,0,0,-1,0,0.94769287,0.10614014,0.04498291,0.29754639,-0.03417969,0.22802734,0.92871094,-0.625,0.0625,-1.75,1.16315E+33,1.16315E+33,0,
2.22887373,2,-13,3,4,4,-1,-3,-1,0,0.94769287,0.10614014,0.04498291,0.29754639,-0.03417969,0.22802734,0.92871094,-0.625,0.0625,-1.75,1.16315E+33,1.16315E+33,0,
2.23929644,0,13,15,0,-4,0,-2,0,0,0.94781494,0.10577393,0.04516602,0.29718018,-0.04492188,0.21191406,0.92480469,-1.375,-0.375,-1.75,1.16315E+33,1.16315E+33,0,
2.24977112,-1,17,-2,5,0,0,0,0,0,0.94781494,0.10577393,0.04516602,0.29718018,-0.04492188,0.21191406,0.92480469,-1.375,-0.375,-1.75,1.16315E+33,1.16315E+33,0,
2.26015878,4,-2,-2,0,0,0,1,2,0,0.94799805,0.10559082,0.04522705,0.29675293,-0.03955078,0.19189453,0.91552734,0.375,-1,-2.375,1.16315E+33,1.16315E+33,0,
2.27059722,4,9,7,-2,-2,-2,-1,0,0,0.94805908,0.10595703,0.04522705,0.29638672,-0.02636719,0.22558594,0.92041016,1.1875,-1.125,-2.25,1.16315E+33,1.16315E+33,0,
2.28112006,1,-10,-21,-4,0,0,-1,-3,0,0.94805908,0.10595703,0.04522705,0.29638672,-0.02636719,0.22558594,0.92041016,1.1875,-1.125,-2.25,1.16315E+33,1.16315E+33,0,
2.29153824,-3,0,-2,0,0,0,-3,-2,0,0.94805908,0.10595703,0.04522705,0.29638672,-0.02636719,0.22558594,0.92041016,1.1875,-1.125,-2.25,1.16315E+33,1.16315E+33,0,
2.30194473,0,5,1,-2,-4,-2,-2,-2,0,0.94818115,0.105896,0.04492188,0.29602051,-0.02490234,0.22802734,0.92919922,-1.625,-2,-1.75,1.16315E+33,1.16315E+33,0,
2.31245971,-2,-3,-1,-1,0,0,-2,-2,0,0.94818115,0.105896,0.04492188,0.29602051,-0.02490234,0.22802734,0.92919922,-1.625,-2,-1.75,1.16315E+33,1.16315E+33,0,
2.3228879,-1,-3,-1,1,0,-2,11,2,0,0.94830322,0.10546875,0.04437256,0.2958374,-0.02587891,0.20458984,0.93164062,-2.4375,-2.75,-1.1875,1.16315E+33,1.16315E+33,0,
2.33333778,-5,9,3,-3,-3,-2,-1,-3,0,0.94830322,0.10546875,0.04437256,0.2958374,-0.02587891,0.20458984,0.93164062,-2.4375,-2.75,-1.1875,1.16315E+33,1.16315E+33,0,
2.34384108,-2,21,-3,-1,1,1,-4,-1,0,0.94842529,0.10546875,0.04388428,0.29559326,-0.02050781,0.20117188,0.9375,0.4375,-2.9375,-1.125,1.16315E+33,1.16315E+33,0,
2.3543849,0,-1,-2,-4,-1,1,0,1,0,0.94842529,0.10546875,0.04388428,0.29559326,-0.02050781,0.20117188,0.9375,0.4375,-2.9375,-1.125,1.16315E+33,1.16315E+33,0,
2.36483836,0,-10,11,1,-2,-1,-4,-1,0,0.94842529,0.10583496,0.04351807,0.29541016,-0.01513672,0.22265625,0.93554688,0.75,-2.375,-0.9375,1.16315E+33,1.16315E+33,0,
2.37547278,-1,0,-2,-3,-2,-2,-5,-2,0,0.94842529,0.10583496,0.04351807,0.29541016,-0.01513672,0.22265625,0.93554688,0.75,-2.375,-0.9375,1.16315E+33,1.16315E+33,0,
2.38623095,1,5,-1,-2,-2,-1,1,1,0,0.94848633,0.10614014,0.043396,0.29516602,-0.02929688,0.2265625,0.93847656,1,-2,-1.0625,1.16315E+33,1.16315E+33,0,
2.39715481,3,-7,-2,-1,-1,-3,-1,-1,0,0.94854736,0.10638428,0.04333496,0.29492188,-0.02734375,0.22705078,0.93994141,0.625,-1.4375,-1.1875,1.16315E+33,1.16315E+33,0,
2.40816569,-3,-7,-2,-2,-2,-1,1,-1,0,0.94854736,0.10638428,0.04333496,0.29492188,-0.02734375,0.22705078,0.93994141,0.625,-1.4375,-1.1875,1.16315E+33,1.16315E+33,0,
2.41889071,-2,-8,1,0,1,0,-2,-1,0,0.9486084,0.10675049,0.04333496,0.2946167,-0.02929688,0.23339844,0.94482422,1.1875,-1.875,-1.5,1.16315E+33,1.16315E+33,0,
2.42983723,-3,-7,-16,2,1,-1,-1,-3,0,0.9486084,0.10675049,0.04333496,0.2946167,-0.02929688,0.23339844,0.94482422,1.1875,-1.875,-1.5,1.16315E+33,1.16315E+33,0,
2.4405942,-2,-7,-3,-3,-4,-1,-2,-4,0,0.94866943,0.10705566,0.04321289,0.29431152,-0.02734375,0.23974609,0.93798828,0.3125,-1.8125,-1.8125,1.16315E+33,1.16315E+33,0,
2.4514854,0,8,12,3,-1,-1,0,-1,0,0.94866943,0.10705566,0.04321289,0.29431152,-0.02734375,0.23974609,0.93798828,0.3125,-1.8125,-1.8125,1.16315E+33,1.16315E+33,0,
2.46236968,0,8,12,3,-1,-1,0,-1,0,0.9487915,0.10717773,0.04315186,0.29388428,-0.02783203,0.22607422,0.94091797,-0.125,-1.5,-2.25,1.16315E+33,1.16315E+33,0,
2.4731648,-7,-22,-8,-6,-3,-2,-1,-2,0,0.9487915,0.10717773,0.04315186,0.29388428,-0.02783203,0.22607422,0.94091797,-0.125,-1.5,-2.25,1.16315E+33,1.16315E+33,0,
2.48381329,1,-5,4,4,1,0,12,2,0,0.94897461,0.1071167,0.04321289,0.293396,-0.03417969,0.21582031,0.94775391,0.375,-0.9375,-2.75,1.16315E+33,1.16315E+33,0,
2.4943192,1,-1,1,-2,0,0,-3,1,0,0.94897461,0.1071167,0.04321289,0.293396,-0.03417969,0.21582031,0.94775391,0.375,-0.9375,-2.75,1.16315E+33,1.16315E+33,0,
2.50469637,-1,1,15,2,0,-1,-1,-1,0,0.94909668,0.10742188,0.04327393,0.29284668,-0.03173828,0.21533203,0.94384766,2.25,-1.5625,-3,1.16315E+33,1.16315E+33,0,
2.51514363,-1,1,15,2,0,-1,-1,-1,0,0.94909668,0.10742188,0.04327393,0.29284668,-0.03173828,0.21533203,0.94384766,2.25,-1.5625,-3,1.16315E+33,1.16315E+33,0,
2.52555919,0,5,4,0,-2,-1,-4,-1,0,0.94921875,0.10803223,0.04321289,0.29223633,-0.02294922,0.23095703,0.94140625,2.5,-2,-3.3125,1.16315E+33,1.16315E+33,0,
2.53602576,0,5,4,0,-2,-1,-4,-1,0,0.94934082,0.10827637,0.04296875,0.29168701,-0.01513672,0.23828125,0.92822266,-0.3125,-2.0625,-2.9375,1.16315E+33,1.16315E+33,0,
2.54643297,-3,-15,0,-3,1,0,-3,-1,0,0.94934082,0.10827637,0.04296875,0.29168701,-0.01513672,0.23828125,0.92822266,-0.3125,-2.0625,-2.9375,1.16315E+33,1.16315E+33,0,
2.55685139,-1,4,1,1,1,0,-1,0,0,0.94952393,0.10803223,0.04272461,0.2913208,-0.01708984,0.21630859,0.92919922,-1.6875,-1.25,-2.3125,1.16315E+33,1.16315E+33,0,
2.56730247,1,21,-6,-2,-1,-1,-1,-2,0,0.94952393,0.10803223,0.04272461,0.2913208,-0.01708984,0.21630859,0.92919922,-1.6875,-1.25,-2.3125,1.16315E+33,1.16315E+33,0,
2.57775712,-4,18,2,-5,-7,-2,-6,-4,0,0.949646,0.10784912,0.04272461,0.29095459,-0.01806641,0.203125,0.93212891,0.25,-0.125,-2.1875,1.16315E+33,1.16315E+33,0,
2.58822441,-4,18,2,-5,-7,-2,-6,-4,0,0.949646,0.10784912,0.04272461,0.29095459,-0.01806641,0.203125,0.93212891,0.25,-0.125,-2.1875,1.16315E+33,1.16315E+33,0,
2.59857535,3,-7,2,2,0,0,0,4,0,0.94970703,0.10821533,0.04284668,0.29058838,-0.01611328,0.20898438,0.94433594,3.125,0,-2.25,1.16315E+33,1.16315E+33,0,
2.60903692,-2,-9,-9,-5,-2,1,2,-2,0,0.94970703,0.10821533,0.04284668,0.29058838,-0.01611328,0.20898438,0.94433594,3.125,0,-2.25,1.16315E+33,1.16315E+33,0,
2.61944532,0,7,7,4,1,0,-8,-3,0,0.94976807,0.10876465,0.04284668,0.29022217,-0.00976562,0.21728516,0.93017578,3.5625,-0.4375,-2,1.16315E+33,1.16315E+33,0,
2.6299262,2,-10,-5,-1,-1,-1,-3,-2,0,0.94976807,0.10876465,0.04284668,0.29022217,-0.00976562,0.21728516,0.93017578,3.5625,-0.4375,-2,1.16315E+33,1.16315E+33,0,
2.6405139,-1,-16,-2,-2,-1,-1,-1,1,0,0.94976807,0.10931396,0.04290771,0.28991699,-0.01269531,0.24462891,0.92089844,1.125,-0.625,-1.6875,1.16315E+33,1.16315E+33,0,
2.65094972,-1,-16,-2,-2,-1,-1,-1,1,0,0.94976807,0.10931396,0.04290771,0.28991699,-0.01269531,0.24462891,0.92089844,1.125,-0.625,-1.6875,1.16315E+33,1.16315E+33,0,
2.66130686,-2,17,-1,-1,-1,-1,0,-1,0,0.94989014,0.10888672,0.04278564,0.28973389,-0.03076172,0.22119141,0.93310547,-2.5,-0.9375,-1.125,1.16315E+33,1.16315E+33,0,
2.67177105,-1,-8,-2,-2,-1,-2,-1,0,0,0.94989014,0.10888672,0.04278564,0.28973389,-0.03076172,0.22119141,0.93310547,-2.5,-0.9375,-1.125,1.16315E+33,1.16315E+33,0,
2.68226528,-5,5,2,-2,1,0,1,-1,0,0.95001221,0.10864258,0.04260254,0.28948975,-0.03076172,0.19873047,0.93701172,0.125,-1.6875,-1.3125,1.16315E+33,1.16315E+33,0,
2.69275236,0,-22,4,1,0,0,-2,0,0,0.95007324,0.10913086,0.0425415,0.28918457,-0.01953125,0.21240234,0.92578125,2.875,-1.75,-1.5625,1.16315E+33,1.16315E+33,0,
2.7032876,0,1,5,0,-3,-3,1,-2,0,0.95007324,0.10913086,0.0425415,0.28918457,-0.01953125,0.21240234,0.92578125,2.875,-1.75,-1.5625,1.16315E+33,1.16315E+33,0,
2.7137692,-2,12,3,-4,-4,-3,-2,-2,0,0.95007324,0.10961914,0.0425415,0.28887939,-0.02246094,0.23974609,0.92773438,1.5625,-1.4375,-1.5,1.16315E+33,1.16315E+33,0,
2.72425604,2,-3,5,-1,-3,-3,-1,-1,0,0.95007324,0.10961914,0.0425415,0.28887939,-0.02246094,0.23974609,0.92773438,1.5625,-1.4375,-1.5,1.16315E+33,1.16315E+33,0,
2.73469305,0,2,-8,-2,-1,-1,14,3,0,0.95007324,0.10961914,0.0425415,0.28887939,-0.02246094,0.23974609,0.92773438,1.5625,-1.4375,-1.5,1.16315E+33,1.16315E+33,0,
2.74511361,0,8,-6,-1,0,0,-2,-2,0,0.95013428,0.10949707,0.04223633,0.28875732,-0.01611328,0.234375,0.91748047,-2.3125,-1.375,-0.5625,1.16315E+33,1.16315E+33,0,
2.75561309,0,8,-6,-1,0,0,-2,-2,0,0.95013428,0.10949707,0.04223633,0.28875732,-0.01611328,0.234375,0.91748047,-2.3125,-1.375,-0.5625,1.16315E+33,1.16315E+33,0,
2.7659831,0,8,-6,-1,0,0,-2,-2,0,0.95013428,0.10949707,0.04223633,0.28875732,-0.01611328,0.234375,0.91748047,-2.3125,-1.375,-0.5625,1.16315E+33,1.16315E+33,0,
2.77634764,1,-6,-5,1,0,0,2,1,0,0.95025635,0.10882568,0.04180908,0.28875732,-0.01513672,0.21044922,0.93359375,-3.5625,-1.3125,-0.25,1.16315E+33,1.16315E+33,0,
2.78679299,0,8,-1,5,1,1,-4,-2,0,0.95031738,0.10858154,0.04156494,0.28869629,-0.02539062,0.21533203,0.94238281,-1.4375,-1.4375,0,1.16315E+33,1.16315E+33,0,
2.7972312,1,2,1,-1,1,-1,-3,0,0,0.95031738,0.10858154,0.04156494,0.28869629,-0.02539062,0.21533203,0.94238281,-1.4375,-1.4375,0,1.16315E+33,1.16315E+33,0,
2.8076241,1,2,1,-1,1,-1,-3,0,0,0.95025635,0.10864258,0.0413208,0.28869629,-0.01464844,0.21826172,0.92626953,0.0625,-1.5625,0.1875,1.16315E+33,1.16315E+33,0,
2.81807208,0,9,-3,1,-1,1,0,-1,0,0.95025635,0.10870361,0.04107666,0.28887939,-0.01269531,0.23779297,0.94384766,-1.1875,-1.0625,0.875,1.16315E+33,1.16315E+33,0,
2.82855129,1,-14,-1,-1,-2,-1,-2,-1,0,0.95025635,0.10870361,0.04107666,0.28887939,-0.01269531,0.23779297,0.94384766,-1.1875,-1.0625,0.875,1.16315E+33,1.16315E+33,0,
2.83896089,1,-14,-1,-1,-2,-1,-2,-1,0,0.95025635,0.10809326,0.04083252,0.2890625,-0.01953125,0.21044922,0.94238281,-3,-0.8125,1.3125,1.16315E+33,1.16315E+33,0,
2.84935331,1,7,-2,0,-3,-1,1,-1,0,0.95025635,0.10809326,0.04083252,0.2890625,-0.01953125,0.21044922,0.94238281,-3,-0.8125,1.3125,1.16315E+33,1.16315E+33,0,
2.85975623,1,7,-2,0,-3,-1,1,-1,0,0.95025635,0.10809326,0.04083252,0.2890625,-0.01953125,0.21044922,0.94238281,-3,-0.8125,1.3125,1.16315E+33,1.16315E+33,0,
2.87010813,1,-8,-3,-2,0,0,0,-3,0,0.95025635,0.10791016,0.04083252,0.28918457,-0.03613281,0.20214844,0.95703125,0.5,-1,1,1.16315E+33,1.16315E+33,0,
2.88056803,-5,1,-4,-3,-3,-2,-2,-3,0,0.95013428,0.10852051,0.04101562,0.28924561,-0.03222656,0.22558594,0.94873047,3.625,-1.25,0.6875,1.16315E+33,1.16315E+33,0,
2.89104009,1,3,2,-1,-2,-1,-3,-1,0,0.95013428,0.10852051,0.04101562,0.28924561,-0.03222656,0.22558594,0.94873047,3.625,-1.25,0.6875,1.16315E+33,1.16315E+33,0,
2.9014349,-3,4,-5,-2,0,1,-2,-1,0,0.95007324,0.10906982,0.04107666,0.28936768,-0.01757812,0.2421875,0.93847656,1.625,-0.75,0.75,1.16315E+33,1.16315E+33,0,
2.91188407,0,6,0,0,-2,-1,-2,-3,0,0.95007324,0.10906982,0.04107666,0.28936768,-0.01757812,0.2421875,0.93847656,1.625,-0.75,0.75,1.16315E+33,1.16315E+33,0,
2.92238641,-3,2,-2,1,-1,-2,-2,-1,0,0.95001221,0.10864258,0.0411377,0.28961182,-0.02539062,0.234375,0.94335938,-3.125,0.5625,1.3125,1.16315E+33,1.16315E+33,0,
2.93287373,-3,2,-2,1,-1,-2,-2,-1,0,0.95001221,0.10864258,0.0411377,0.28961182,-0.02539062,0.234375,0.94335938,-3.125,0.5625,1.3125,1.16315E+33,1.16315E+33,0,
2.94322515,-3,2,-2,1,-1,-2,-2,-1,0,0.95001221,0.10864258,0.0411377,0.28961182,-0.02539062,0.234375,0.94335938,-3.125,0.5625,1.3125,1.16315E+33,1.16315E+33,0,
2.95357633,-3,4,-1,-2,-1,1,-1,-2,0,0.95001221,0.10809326,0.04125977,0.28985596,-0.02832031,0.22021484,0.95849609,-2.375,1,1.3125,1.16315E+33,1.16315E+33,0,
2.96400285,-5,-31,-4,-3,-3,-2,-2,-3,0,0.95001221,0.10809326,0.0413208,0.28985596,-0.02148438,0.21533203,0.95019531,0.875,0.75,0.6875,1.16315E+33,1.16315E+33,0,
2.97447777,-2,-2,-7,-4,-3,-2,-3,-2,0,0.95001221,0.10809326,0.0413208,0.28985596,-0.02148438,0.21533203,0.95019531,0.875,0.75,0.6875,1.16315E+33,1.16315E+33,0,
2.98492408,1,-9,-3,-3,-2,-1,0,-1,0,0.94995117,0.10839844,0.04168701,0.28985596,-0.02001953,0.23779297,0.94677734,1.375,1.25,0.125,1.16315E+33,1.16315E+33,0,
2.99541235,1,-9,-3,-3,-2,-1,0,-1,0,0.94995117,0.10839844,0.04168701,0.28985596,-0.02001953,0.23779297,0.94677734,1.375,1.25,0.125,1.16315E+33,1.16315E+33,0,
3.00577211,0,6,0,0,0,0,2,1,0,0.94995117,0.10809326,0.04205322,0.28985596,-0.02539062,0.24365234,0.93212891,-2.75,2.125,-0.375,1.16315E+33,1.16315E+33,0,
3.01623416,-1,-10,-1,3,0,1,2,0,0,0.94995117,0.10809326,0.04205322,0.28985596,-0.02539062,0.24365234,0.93212891,-2.75,2.125,-0.375,1.16315E+33,1.16315E+33,0,
3.02665019,3,8,-14,-3,0,1,-2,1,0,0.95007324,0.10705566,0.04248047,0.28985596,-0.03417969,0.21777344,0.93945312,-4.9375,2.625,-0.25,1.16315E+33,1.16315E+33,0,
3.03712106,2,19,1,1,0,-2,3,3,0,0.95013428,0.10650635,0.04284668,0.28979492,-0.03369141,0.20947266,0.94287109,-1.6875,1.8125,-0.75,1.16315E+33,1.16315E+33,0,
3.0475955,1,3,6,0,-2,-1,-2,-2,0,0.95013428,0.10650635,0.04284668,0.28979492,-0.03369141,0.20947266,0.94287109,-1.6875,1.8125,-0.75,1.16315E+33,1.16315E+33,0,
3.05801892,-1,-26,-5,-1,1,1,2,1,0,0.95013428,0.10650635,0.04284668,0.28979492,-0.03369141,0.20947266,0.94287109,-1.6875,1.8125,-0.75,1.16315E+33,1.16315E+33,0,
3.06848192,2,4,9,0,1,0,1,0,0,0.95019531,0.10650635,0.04315186,0.28961182,-0.02978516,0.21923828,0.93798828,0.5,0.9375,-1.25,1.16315E+33,1.16315E+33,0,
3.07894921,2,4,9,0,1,0,1,0,0,0.95019531,0.10650635,0.04315186,0.28961182,-0.02978516,0.21923828,0.93798828,0.5,0.9375,-1.25,1.16315E+33,1.16315E+33,0,
3.08930016,-7,-1,-6,-4,-3,-1,-9,-3,0,0.95025635,0.10638428,0.04327393,0.28936768,-0.02587891,0.21826172,0.92285156,-0.625,0.375,-1.375,1.16315E+33,1.16315E+33,0,
3.09979343,1,2,-12,-3,2,-1,0,0,0,0.95037842,0.10577393,0.04333496,0.28912354,-0.02734375,0.21289062,0.91992188,-3.1875,0.6875,-1.8125,1.16315E+33,1.16315E+33,0,
3.11025262,1,2,-12,-3,2,-1,0,0,0,0.95037842,0.10577393,0.04333496,0.28912354,-0.02734375,0.21289062,0.91992188,-3.1875,0.6875,-1.8125,1.16315E+33,1.16315E+33,0,
3.12060571,3,13,8,0,0,-1,0,-1,0,0.95056152,0.10510254,0.04345703,0.28887939,-0.02929688,0.2109375,0.93066406,-3.4375,1.0625,-1.625,1.16315E+33,1.16315E+33,0,
3.13105583,-2,-18,-5,-2,-4,-3,-2,0,0,0.95056152,0.10510254,0.04345703,0.28887939,-0.02929688,0.2109375,0.93066406,-3.4375,1.0625,-1.625,1.16315E+33,1.16315E+33,0,
3.14149356,-2,-18,-5,-2,-4,-3,-2,0,0,0.95056152,0.10510254,0.04345703,0.28887939,-0.02929688,0.2109375,0.93066406,-3.4375,1.0625,-1.625,1.16315E+33,1.16315E+33,0,
3.15185618,-2,-18,-5,-2,-4,-3,-2,0,0,0.95068359,0.10443115,0.04351807,0.28869629,-0.02539062,0.20458984,0.94580078,-2.8125,0.8125,-1.3125,1.16315E+33,1.16315E+33,0,
3.16236472,-3,38,7,0,0,-2,-2,-4,0,0.95068359,0.10443115,0.04351807,0.28869629,-0.02539062,0.20458984,0.94580078,-2.8125,0.8125,-1.3125,1.16315E+33,1.16315E+33,0,
3.17280149,0,-7,-2,-2,-4,0,-3,-1,0,0.95068359,0.10443115,0.04351807,0.28869629,-0.02734375,0.21044922,0.92919922,-0.5,0.6875,-0.1875,1.16315E+33,1.16315E+33,0,
3.18339443,1,13,22,0,-2,0,1,2,0,0.95068359,0.10443115,0.04351807,0.28869629,-0.02734375,0.21044922,0.92919922,-0.5,0.6875,-0.1875,1.16315E+33,1.16315E+33,0,
3.19416809,1,-9,-11,-3,2,1,13,2,0,0.95068359,0.10443115,0.04351807,0.28869629,-0.02734375,0.21044922,0.92919922,-0.5,0.6875,-0.1875,1.16315E+33,1.16315E+33,0,
3.20493913,0,-16,-6,-1,-4,-2,0,0,0,0.95068359,0.10437012,0.04351807,0.28869629,-0.03076172,0.19873047,0.93798828,-0.6875,0.5625,-0.1875,1.16315E+33,1.16315E+33,0,
3.21582675,4,14,0,3,1,-1,-4,-1,0,0.95068359,0.10437012,0.04351807,0.28869629,-0.03076172,0.19873047,0.93798828,-0.6875,0.5625,-0.1875,1.16315E+33,1.16315E+33,0,
3.22662425,0,0,0,-3,0,2,2,1,0,0.95068359,0.10430908,0.04351807,0.28869629,-0.02832031,0.20849609,0.93554688,-0.125,0.25,-0.6875,1.16315E+33,1.16315E+33,0,
3.23744893,-3,-6,0,3,1,1,-2,0,0,0.95068359,0.10437012,0.0435791,0.28869629,-0.02734375,0.22509766,0.93261719,-0.1875,0.0625,-0.125,1.16315E+33,1.16315E+33,0,
3.24831128,-4,-13,-4,-1,-2,-1,-4,-4,0,0.95068359,0.10437012,0.0435791,0.28869629,-0.02734375,0.22509766,0.93261719,-0.1875,0.0625,-0.125,1.16315E+33,1.16315E+33,0,
3.2591145,5,-3,2,-1,-1,-1,-1,0,0,0.95068359,0.10406494,0.04364014,0.28875732,-0.02734375,0.22460938,0.94042969,-2.25,0.4375,0.125,1.16315E+33,1.16315E+33,0,
3.26989341,-2,11,-1,2,-1,2,0,2,0,0.95068359,0.10406494,0.04364014,0.28875732,-0.02734375,0.22460938,0.94042969,-2.25,0.4375,0.125,1.16315E+33,1.16315E+33,0,
3.28056741,3,-1,1,-1,-1,-1,1,-1,0,0.95068359,0.10406494,0.04364014,0.28875732,-0.02734375,0.22460938,0.94042969,-2.25,0.4375,0.125,1.16315E+33,1.16315E+33,0,
3.29099011,-2,27,9,-1,-2,0,-4,0,0,0.95068359,0.10406494,0.04364014,0.28875732,-0.04003906,0.21728516,0.93652344,-0.875,0.375,0.125,1.16315E+33,1.16315E+33,0,
3.30144262,2,-3,8,0,1,1,13,2,0,0.95068359,0.10412598,0.04394531,0.28869629,-0.04101562,0.21142578,0.94091797,1.125,0.125,-0.125,1.16315E+33,1.16315E+33,0,
3.31191134,0,16,-1,-1,-2,-3,-2,-2,0,0.95068359,0.10412598,0.04394531,0.28869629,-0.04101562,0.21142578,0.94091797,1.125,0.125,-0.125,1.16315E+33,1.16315E+33,0,
3.32241845,-3,-4,-3,0,-1,-2,-8,-3,0,0.95068359,0.10455322,0.04418945,0.28857422,-0.03564453,0.21191406,0.92822266,2.75,-0.1875,-0.4375,1.16315E+33,1.16315E+33,0,
3.33288622,-5,2,-3,1,0,0,0,-2,0,0.95068359,0.10455322,0.04418945,0.28857422,-0.03564453,0.21191406,0.92822266,2.75,-0.1875,-0.4375,1.16315E+33,1.16315E+33,0,
3.34328914,-3,-16,-7,-3,-1,-1,-2,-2,0,0.95068359,0.10455322,0.04425049,0.28857422,-0.03369141,0.22705078,0.92529297,0.375,0.125,-0.8125,1.16315E+33,1.16315E+33,0,
3.3537457,-1,-4,0,-3,-1,-1,-4,0,0,0.95068359,0.10437012,0.04431152,0.28845215,-0.03369141,0.22167969,0.93798828,-1.375,-0.0625,-0.625,1.16315E+33,1.16315E+33,0,
3.36420488,-1,10,-4,0,3,1,-1,0,0,0.95068359,0.10437012,0.04431152,0.28845215,-0.03369141,0.22167969,0.93798828,-1.375,-0.0625,-0.625,1.16315E+33,1.16315E+33,0,
3.37461042,-2,7,2,0,-1,-1,-1,-1,0,0.95068359,0.10437012,0.04431152,0.28845215,-0.02880859,0.21240234,0.93798828,0.1875,-0.8125,-0.5625,1.16315E+33,1.16315E+33,0,
3.38504839,0,-11,-4,0,-1,-1,-1,0,0,0.95068359,0.10437012,0.04431152,0.28845215,-0.02880859,0.21240234,0.93798828,0.1875,-0.8125,-0.5625,1.16315E+33,1.16315E+33,0,
3.39544749,-7,18,-8,-3,-2,-2,-3,-3,0,0.95068359,0.10437012,0.04431152,0.28845215,-0.02880859,0.21240234,0.93798828,0.1875,-0.8125,-0.5625,1.16315E+33,1.16315E+33,0,
3.40586591,-2,-34,-7,-1,1,-3,-2,-1,0,0.95068359,0.10473633,0.04425049,0.28839111,-0.02539062,0.21826172,0.93164062,1.625,-1.4375,-0.375,1.16315E+33,1.16315E+33,0,
3.41632915,-2,-34,-7,-1,1,-3,-2,-1,0,0.95068359,0.10473633,0.04425049,0.28839111,-0.02539062,0.21826172,0.93164062,1.625,-1.4375,-0.375,1.16315E+33,1.16315E+33,0,
3.42668939,-1,13,-8,1,-3,-1,-3,-3,0,0.95068359,0.10498047,0.04406738,0.28839111,-0.02148438,0.21972656,0.93310547,0.75,-1.25,0.3125,1.16315E+33,1.16315E+33,0,
3.4371593,0,-19,3,-2,2,1,13,2,0,0.95068359,0.10498047,0.04406738,0.28839111,-0.02148438,0.21972656,0.93310547,0.75,-1.25,0.3125,1.16315E+33,1.16315E+33,0,
3.44760418,3,8,1,1,-4,-2,2,1,0,0.95068359,0.10498047,0.04412842,0.28839111,-0.03173828,0.21533203,0.92871094,0.0625,-0.625,0.0625,1.16315E+33,1.16315E+33,0,
3.45811224,-1,16,1,-3,-3,-4,-3,-5,0,0.95068359,0.10498047,0.04412842,0.28839111,-0.02880859,0.22265625,0.92919922,-0.3125,-0.1875,-0.125,1.16315E+33,1.16315E+33,0,
3.46856999,-1,16,1,-3,-3,-4,-3,-5,0,0.95068359,0.10498047,0.04412842,0.28839111,-0.02880859,0.22265625,0.92919922,-0.3125,-0.1875,-0.125,1.16315E+33,1.16315E+33,0,
3.47890496,0,-2,-2,-5,-2,-3,-3,-3,0,0.95068359,0.10498047,0.04412842,0.28839111,-0.03417969,0.21337891,0.92822266,0,-0.5,0,1.16315E+33,1.16315E+33,0,
3.48935866,0,-2,-2,-5,-2,-3,-3,-3,0,0.95068359,0.10498047,0.04412842,0.28839111,-0.03417969,0.21337891,0.92822266,0,-0.5,0,1.16315E+33,1.16315E+33,0,
3.49970365,0,-19,5,-2,-4,-4,-3,-1,0,0.95068359,0.10498047,0.04418945,0.28839111,-0.02783203,0.21240234,0.93554688,0.25,-0.75,0.5,1.16315E+33,1.16315E+33,0,
3.51012731,0,10,-1,2,4,-1,-1,2,0,0.95068359,0.10498047,0.04418945,0.28839111,-0.02783203,0.21240234,0.93554688,0.25,-0.75,0.5,1.16315E+33,1.16315E+33,0,
3.52064013,0,10,-1,2,4,-1,-1,2,0,0.95068359,0.10498047,0.04418945,0.28839111,-0.02636719,0.21191406,0.92724609,-0.25,-0.75,0.625,1.16315E+33,1.16315E+33,0,
3.53100061,1,-9,-2,-1,-2,0,-5,-3,0,0.95068359,0.10498047,0.04418945,0.28839111,-0.02636719,0.21191406,0.92724609,-0.25,-0.75,0.625,1.16315E+33,1.16315E+33,0,
3.54138303,-2,-7,-4,-1,0,0,-1,-3,0,0.95068359,0.10498047,0.04418945,0.28839111,-0.02929688,0.21923828,0.92236328,-0.625,-0.8125,0.4375,1.16315E+33,1.16315E+33,0,
3.55181813,-1,-13,1,0,-3,-1,-1,0,0,0.95068359,0.10498047,0.04418945,0.28839111,-0.02929688,0.21923828,0.92236328,-0.625,-0.8125,0.4375,1.16315E+33,1.16315E+33,0,
3.56243467,-1,-3,-1,0,-1,0,-2,2,0,0.95068359,0.10473633,0.04406738,0.28839111,-0.03271484,0.22509766,0.93261719,-2.1875,-1.1875,0.1875,1.16315E+33,1.16315E+33,0,
3.57291842,0,-6,-5,-2,-2,-1,-1,-1,0,0.95068359,0.10473633,0.04406738,0.28839111,-0.03271484,0.22509766,0.93261719,-2.1875,-1.1875,0.1875,1.16315E+33,1.16315E+33,0,
3.58333111,0,-6,-5,-2,-2,-1,-1,-1,0,0.95068359,0.10473633,0.04406738,0.28839111,-0.03271484,0.22509766,0.93261719,-2.1875,-1.1875,0.1875,1.16315E+33,1.16315E+33,0,
3.59368706,5,9,-3,-3,-1,-1,-2,0,0,0.95074463,0.10430908,0.04333496,0.28851318,-0.02587891,0.21630859,0.94091797,-1.625,-2,0.625,1.16315E+33,1.16315E+33,0,
3.60412574,-3,-10,2,-1,0,0,0,-4,0,0.95074463,0.10430908,0.04333496,0.28851318,-0.02587891,0.21630859,0.94091797,-1.625,-2,0.625,1.16315E+33,1.16315E+33,0,
3.61457109,0,14,4,-2,0,-1,-2,-3,0,0.95074463,0.10424805,0.04309082,0.28857422,-0.02099609,0.21630859,0.93652344,-0.9375,-1.25,0.4375,1.16315E+33,1.16315E+33,0,
3.62503266,0,14,4,-2,0,-1,-2,-3,0,0.95074463,0.10424805,0.04309082,0.28857422,-0.02099609,0.21630859,0.93652344,-0.9375,-1.25,0.4375,1.16315E+33,1.16315E+33,0,
3.63537097,1,16,2,-1,-2,-1,-1,0,0,0.95074463,0.10424805,0.04309082,0.28857422,-0.02099609,0.21630859,0.93652344,-0.9375,-1.25,0.4375,1.16315E+33,1.16315E+33,0,
3.64574265,-1,3,1,-3,-2,-1,-2,0,0,0.95074463,0.10424805,0.04309082,0.28857422,-0.02197266,0.21337891,0.93115234,-0.8125,-0.625,0.6875,1.16315E+33,1.16315E+33,0,
3.65617895,-1,3,1,-3,-2,-1,-2,0,0,0.95074463,0.10424805,0.04309082,0.28857422,-0.02197266,0.21337891,0.93115234,-0.8125,-0.625,0.6875,1.16315E+33,1.16315E+33,0,
3.66651225,0,13,-5,-2,0,-1,-6,-2,0,0.95074463,0.10406494,0.04296875,0.28863525,-0.02636719,0.21777344,0.93652344,-1.375,-0.6875,0.4375,1.16315E+33,1.16315E+33,0,
3.67695975,-2,4,-6,-2,-1,-1,2,0,0,0.95074463,0.10406494,0.04296875,0.28863525,-0.02636719,0.21777344,0.93652344,-1.375,-0.6875,0.4375,1.16315E+33,1.16315E+33,0,
3.6873529,-2,-10,2,1,-1,-1,1,0,0,0.95074463,0.10394287,0.04290771,0.28869629,-0.02587891,0.22119141,0.93652344,-1.625,-0.5625,0.375,1.16315E+33,1.16315E+33,0,
3.69778991,-1,-7,10,-1,-1,-1,-1,-1,0,0.95074463,0.10357666,0.04278564,0.28881836,-0.02636719,0.21728516,0.93505859,-2.375,-0.3125,0.4375,1.16315E+33,1.16315E+33,0,
3.70824003,1,-13,1,-1,-1,-2,1,0,0,0.95074463,0.10357666,0.04278564,0.28881836,-0.02636719,0.21728516,0.93505859,-2.375,-0.3125,0.4375,1.16315E+33,1.16315E+33,0,
3.71862626,0,3,-10,0,0,-1,2,-1,0,0.95080566,0.10308838,0.04272461,0.28894043,-0.03271484,0.21289062,0.94189453,-3,-0.1875,0.6875,1.16315E+33,1.16315E+33,0,
3.72908735,0,3,-10,0,0,-1,2,-1,0,0.95080566,0.10308838,0.04272461,0.28894043,-0.03271484,0.21289062,0.94189453,-3,-0.1875,0.6875,1.16315E+33,1.16315E+33,0,
3.73942852,-2,9,3,3,2,0,1,1,0,0.95080566,0.1027832,0.04272461,0.28900146,-0.03564453,0.20410156,0.93603516,-1.3125,-0.4375,0.75,1.16315E+33,1.16315E+33,0,
3.74988675,1,-3,-5,-5,-2,-2,-2,-3,0,0.95080566,0.1027832,0.04272461,0.28900146,-0.03564453,0.20410156,0.93603516,-1.3125,-0.4375,0.75,1.16315E+33,1.16315E+33,0,
3.7603178,1,-3,-5,-5,-2,-2,-2,-3,0,0.95080566,0.1027832,0.04272461,0.28900146,-0.03564453,0.20410156,0.93603516,-1.3125,-0.4375,0.75,1.16315E+33,1.16315E+33,0,
3.77065492,1,13,1,2,0,1,8,2,0,0.95080566,0.10272217,0.04278564,0.28900146,-0.03710938,0.20947266,0.93701172,0.8125,-0.9375,0.3125,1.16315E+33,1.16315E+33,0,
3.78111386,-1,2,1,1,-4,-1,0,-1,0,0.95080566,0.10272217,0.04278564,0.28900146,-0.03710938,0.20947266,0.93701172,0.8125,-0.9375,0.3125,1.16315E+33,1.16315E+33,0,
3.79151511,-1,20,-6,-1,0,0,-4,-2,0,0.95080566,0.10272217,0.04284668,0.28900146,-0.0390625,0.21582031,0.93164062,-0.25,-1,-0.1875,1.16315E+33,1.16315E+33,0,
3.80196953,3,-11,-3,0,0,-1,-1,2,0,0.9508667,0.10247803,0.04266357,0.28894043,-0.03417969,0.203125,0.93994141,-1.3125,-1.4375,-0.25,1.16315E+33,1.16315E+33,0,
3.81266332,-1,-4,2,-2,-3,-2,-2,-1,0,0.9508667,0.10247803,0.04266357,0.28894043,-0.03417969,0.203125,0.93994141,-1.3125,-1.4375,-0.25,1.16315E+33,1.16315E+33,0,
3.82308292,-1,-4,2,-2,-3,-2,-2,-1,0,0.9508667,0.10223389,0.04241943,0.28894043,-0.03662109,0.20166016,0.94238281,-1,-2,0.0625,1.16315E+33,1.16315E+33,0,
3.83348465,6,-3,-6,0,-3,0,0,0,0,0.9508667,0.10223389,0.04241943,0.28894043,-0.03662109,0.20166016,0.94238281,-1,-2,0.0625,1.16315E+33,1.16315E+33,0,
3.8439033,6,-3,-6,0,-3,0,0,0,0,0.9508667,0.10223389,0.04241943,0.28894043,-0.03662109,0.20166016,0.94238281,-1,-2,0.0625,1.16315E+33,1.16315E+33,0,
3.85424662,0,4,4,-2,-1,-1,-1,0,0,0.9508667,0.10223389,0.04217529,0.28894043,-0.03027344,0.203125,0.93554688,-0.0625,-2.125,0.375,1.16315E+33,1.16315E+33,0,
3.86474419,-1,-4,-4,-2,-2,0,-3,0,0,0.95092773,0.10211182,0.04193115,0.28894043,-0.02880859,0.20556641,0.93408203,-0.875,-1.625,0.3125,1.16315E+33,1.16315E+33,0,
3.87518477,-2,-2,0,-3,0,-1,7,-2,0,0.95092773,0.10211182,0.04193115,0.28894043,-0.02880859,0.20556641,0.93408203,-0.875,-1.625,0.3125,1.16315E+33,1.16315E+33,0,
3.88562465,-2,-2,0,-3,0,-1,7,-2,0,0.95092773,0.10174561,0.04162598,0.28900146,-0.02783203,0.19433594,0.94238281,-1.5625,-1.6875,0.5,1.16315E+33,1.16315E+33,0,
3.89603567,-1,0,-6,-1,-1,1,-3,0,0,0.95098877,0.10150146,0.0413208,0.2890625,-0.02392578,0.20019531,0.94628906,-0.9375,-1.75,0.5625,1.16315E+33,1.16315E+33,0,
3.90651774,-2,-9,4,0,-1,-1,0,-3,0,0.95098877,0.10150146,0.0413208,0.2890625,-0.02392578,0.20019531,0.94628906,-0.9375,-1.75,0.5625,1.16315E+33,1.16315E+33,0,
3.91693091,-5,15,0,-1,-3,-4,-4,-5,0,0.95098877,0.10150146,0.0413208,0.2890625,-0.02392578,0.20019531,0.94628906,-0.9375,-1.75,0.5625,1.16315E+33,1.16315E+33,0,
3.92731166,-2,-7,-2,-2,-2,0,-1,1,0,0.95092773,0.1015625,0.04101562,0.28924561,-0.01904297,0.21044922,0.93212891,-0.625,-1.625,0.9375,1.16315E+33,1.16315E+33,0,
3.93778324,-1,15,-2,-3,-4,-2,-2,-1,0,0.95092773,0.10131836,0.04083252,0.28942871,-0.0234375,0.20556641,0.94287109,-1.375,-1.0625,1.1875,1.16315E+33,1.16315E+33,0,
3.94823217,-1,15,-2,-3,-4,-2,-2,-1,0,0.95092773,0.10131836,0.04083252,0.28942871,-0.0234375,0.20556641,0.94287109,-1.375,-1.0625,1.1875,1.16315E+33,1.16315E+33,0,
3.95860481,-2,8,1,-1,1,1,0,0,0,0.95092773,0.10131836,0.04083252,0.28942871,-0.0234375,0.20556641,0.94287109,-1.375,-1.0625,1.1875,1.16315E+33,1.16315E+33,0,
3.96902299,0,3,-10,-4,0,-1,-1,-1,0,0.95092773,0.10131836,0.04083252,0.28936768,-0.03320312,0.20361328,0.94189453,-0.125,-0.5,0.625,1.16315E+33,1.16315E+33,0,
3.97947454,-3,19,-2,-2,-2,-2,-4,-3,0,0.95092773,0.10131836,0.04089355,0.28936768,-0.02539062,0.21484375,0.94140625,0.25,-0.6875,-0.0625,1.16315E+33,1.16315E+33,0,
3.99006224,-3,19,-2,-2,-2,-2,-4,-3,0,0.95092773,0.10131836,0.04089355,0.28936768,-0.02539062,0.21484375,0.94140625,0.25,-0.6875,-0.0625,1.16315E+33,1.16315E+33,0,
4.00072384,-3,-10,-2,-5,-3,-5,-5,-4,0,0.95092773,0.10131836,0.04089355,0.28936768,-0.02539062,0.21484375,0.94140625,0.25,-0.6875,-0.0625,1.16315E+33,1.16315E+33,0,
4.01146555,0,16,4,-1,-3,-1,-2,0,0,0.9508667,0.10150146,0.04077148,0.28942871,-0.02441406,0.21728516,0.94189453,0.1875,-1.375,0.25,1.16315E+33,1.16315E+33,0,
4.02260399,1,-11,2,1,-1,-4,0,0,0,0.9508667,0.10168457,0.04058838,0.28942871,-0.02099609,0.21972656,0.94384766,-0.3125,-1.5625,0.1875,1.16315E+33,1.16315E+33,0,
4.03359914,-1,-12,-4,0,1,-1,0,-2,0,0.9508667,0.10168457,0.04058838,0.28942871,-0.02099609,0.21972656,0.94384766,-0.3125,-1.5625,0.1875,1.16315E+33,1.16315E+33,0,
4.04439402,-1,-12,-4,0,1,-1,0,-2,0,0.9508667,0.10180664,0.04046631,0.28942871,-0.02880859,0.22119141,0.93603516,-0.4375,-1.4375,0.1875,1.16315E+33,1.16315E+33,0,
4.05527329,1,-8,-1,-2,1,0,-1,1,0,0.95092773,0.10186768,0.04040527,0.28930664,-0.02587891,0.21533203,0.93212891,-0.3125,-1.125,-0.4375,1.16315E+33,1.16315E+33,0,
4.0664711,1,-8,-1,-2,1,0,-1,1,0,0.95092773,0.10186768,0.04040527,0.28930664,-0.02587891,0.21533203,0.93212891,-0.3125,-1.125,-0.4375,1.16315E+33,1.16315E+33,0,
4.07720971,1,-2,-1,2,0,0,0,0,0,0.95092773,0.10186768,0.04040527,0.28930664,-0.02587891,0.21533203,0.93212891,-0.3125,-1.125,-0.4375,1.16315E+33,1.16315E+33,0,
4.08785653,-3,16,1,3,-1,-2,1,1,0,0.9508667,0.10217285,0.04034424,0.28918457,-0.01464844,0.21435547,0.92724609,1.25,-0.75,-0.5,1.16315E+33,1.16315E+33,0,
4.09837294,0,-1,-5,-2,-2,-1,-1,0,0,0.9508667,0.10217285,0.04034424,0.28918457,-0.01464844,0.21435547,0.92724609,1.25,-0.75,-0.5,1.16315E+33,1.16315E+33,0,
4.10883141,2,10,-12,-4,-2,-1,-2,-3,0,0.9508667,0.10266113,0.04040527,0.2890625,-0.01904297,0.22119141,0.93701172,1.9375,-0.8125,-0.625,1.16315E+33,1.16315E+33,0,
4.11932254,0,-7,1,1,0,1,2,-2,0,0.9508667,0.10321045,0.04034424,0.28894043,-0.01464844,0.21630859,0.93603516,2.375,-1.0625,-0.5625,1.16315E+33,1.16315E+33,0,
4.12981343,-6,-26,-1,-2,-3,-3,-1,-4,0,0.9508667,0.10321045,0.04034424,0.28894043,-0.01464844,0.21630859,0.93603516,2.375,-1.0625,-0.5625,1.16315E+33,1.16315E+33,0,
4.14026141,3,-11,0,-3,-1,0,-2,-1,0,0.9508667,0.1038208,0.04016113,0.28881836,-0.01416016,0.21875,0.93359375,2.5,-2,-0.5625,1.16315E+33,1.16315E+33,0,
4.15070629,3,-11,0,-3,-1,0,-2,-1,0,0.9508667,0.1038208,0.04016113,0.28881836,-0.01416016,0.21875,0.93359375,2.5,-2,-0.5625,1.16315E+33,1.16315E+33,0,
4.16106391,0,0,4,-1,1,-1,-1,-1,0,0.9508667,0.10430908,0.03985596,0.28863525,-0.02099609,0.21875,0.94042969,1.6875,-3,-0.5,1.16315E+33,1.16315E+33,0,
4.17149162,-1,0,-3,-3,-1,-3,0,0,0,0.9508667,0.10430908,0.03985596,0.28863525,-0.02099609,0.21875,0.94042969,1.6875,-3,-0.5,1.16315E+33,1.16315E+33,0,
4.1818831,-2,-5,-3,-2,-4,-2,-1,-3,0,0.9508667,0.10430908,0.03985596,0.28863525,-0.02099609,0.21875,0.94042969,1.6875,-3,-0.5,1.16315E+33,1.16315E+33,0,
4.19240069,0,-3,-5,-2,-1,0,-2,0,0,0.9508667,0.1048584,0.03948975,0.28857422,-0.01757812,0.21777344,0.93310547,2.1875,-3.3125,-0.25,1.16315E+33,1.16315E+33,0,
4.20285368,0,-3,-5,-2,-1,0,-2,0,0,0.9508667,0.10540771,0.03912354,0.28839111,-0.01611328,0.20947266,0.93164062,2.5625,-3.125,-0.4375,1.16315E+33,1.16315E+33,0,
4.21329117,-2,-1,1,-2,-3,-1,2,1,0,0.9508667,0.10540771,0.03912354,0.28839111,-0.01611328,0.20947266,0.93164062,2.5625,-3.125,-0.4375,1.16315E+33,1.16315E+33,0,
4.22370028,-3,26,-3,0,0,-1,-3,-1,0,0.95080566,0.10601807,0.03881836,0.28826904,-0.00488281,0.21386719,0.93164062,2.75,-2.25,-0.6875,1.16315E+33,1.16315E+33,0,
4.23417974,-2,-3,-1,-1,1,2,11,2,0,0.95080566,0.10601807,0.03881836,0.28826904,-0.00488281,0.21386719,0.93164062,2.75,-2.25,-0.6875,1.16315E+33,1.16315E+33,0,
4.24458504,0,-2,-2,-1,-1,-3,-2,-5,0,0.95080566,0.10638428,0.03851318,0.28820801,0,0.22949219,0.94140625,0.5,-1.625,-0.3125,1.16315E+33,1.16315E+33,0,
4.25504875,0,-2,-2,-1,-1,-3,-2,-5,0,0.95080566,0.10638428,0.03851318,0.28820801,0,0.22949219,0.94140625,0.5,-1.625,-0.3125,1.16315E+33,1.16315E+33,0,
4.26541185,-2,8,8,3,2,-2,1,-1,0,0.95080566,0.10632324,0.03814697,0.28826904,-0.00878906,0.21630859,0.94482422,-0.6875,-1.625,0.5625,1.16315E+33,1.16315E+33,0,
4.2758801,1,-2,-1,1,1,-1,-2,0,0,0.95080566,0.10632324,0.03814697,0.28826904,-0.00878906,0.21630859,0.94482422,-0.6875,-1.625,0.5625,1.16315E+33,1.16315E+33,0,
4.28632021,1,-2,-1,1,1,-1,-2,0,0,0.95080566,0.10644531,0.03796387,0.28839111,-0.01123047,0.21044922,0.93505859,0.5,-1.1875,0.8125,1.16315E+33,1.16315E+33,0,
4.29674292,1,-6,-7,0,2,0,-2,2,0,0.95080566,0.10644531,0.03796387,0.28839111,-0.00927734,0.21484375,0.94384766,0.6875,-0.3125,0.8125,1.16315E+33,1.16315E+33,0,
4.30716014,0,4,1,0,0,0,0,-1,0,0.95080566,0.10644531,0.03796387,0.28839111,-0.00927734,0.21484375,0.94384766,0.6875,-0.3125,0.8125,1.16315E+33,1.16315E+33,0,
4.31756544,0,22,0,-2,-4,0,-2,-2,0,0.95074463,0.10626221,0.0380249,0.28857422,-0.00976562,0.21923828,0.93994141,-1.125,0.5625,1.0625,1.16315E+33,1.16315E+33,0,
4.32804394,-6,-11,-4,-2,1,0,0,1,0,0.95074463,0.10626221,0.0380249,0.28857422,-0.00976562,0.21923828,0.93994141,-1.125,0.5625,1.0625,1.16315E+33,1.16315E+33,0,
4.33846831,4,5,3,-2,-1,0,0,1,0,0.95068359,0.1060791,0.03808594,0.28881836,-0.01269531,0.21484375,0.94921875,-0.8125,0.625,1.3125,1.16315E+33,1.16315E+33,0,
4.34893084,0,-5,1,-1,1,1,-8,-2,0,0.95068359,0.1060791,0.03808594,0.28881836,-0.01269531,0.21484375,0.94921875,-0.8125,0.625,1.3125,1.16315E+33,1.16315E+33,0,
4.35935712,0,-5,1,-1,1,1,-8,-2,0,0.95068359,0.1060791,0.03808594,0.28881836,-0.01269531,0.21484375,0.94921875,-0.8125,0.625,1.3125,1.16315E+33,1.16315E+33,0,
4.36971426,-2,-9,1,0,-1,-1,-3,-1,0,0.95062256,0.10601807,0.03808594,0.2890625,-0.01367188,0.23144531,0.94873047,-1.1875,0.375,1.375,1.16315E+33,1.16315E+33,0,
4.38013911,4,-1,1,-1,-3,-2,-1,-1,0,0.95056152,0.10571289,0.03808594,0.28924561,-0.01025391,0.22949219,0.94482422,-2.625,0.4375,1.1875,1.16315E+33,1.16315E+33,0,
4.39056301,-1,26,2,0,-1,-3,-1,-1,0,0.95056152,0.10571289,0.03808594,0.28924561,-0.01025391,0.22949219,0.94482422,-2.625,0.4375,1.1875,1.16315E+33,1.16315E+33,0,
4.40095282,-4,-2,0,-2,0,-1,1,0,0,0.95056152,0.10528564,0.03820801,0.28948975,-0.01708984,0.21923828,0.94091797,-2.5,1.25,1.0625,1.16315E+33,1.16315E+33,0,
4.41158271,3,-7,-4,-2,-2,-2,3,2,0,0.95056152,0.10528564,0.03820801,0.28948975,-0.01708984,0.21923828,0.94091797,-2.5,1.25,1.0625,1.16315E+33,1.16315E+33,0,
4.42201304,0,2,1,-1,0,-1,-2,0,0,0.95056152,0.10528564,0.03820801,0.28948975,-0.01708984,0.21923828,0.94091797,-2.5,1.25,1.0625,1.16315E+33,1.16315E+33,0,
4.43253899,1,-6,-3,-2,0,-2,-3,-1,0,0.95056152,0.10510254,0.03857422,0.28961182,-0.01806641,0.21533203,0.94335938,-0.5,1.8125,0.5,1.16315E+33,1.16315E+33,0,
4.44302559,1,-6,-3,-2,0,-2,-3,-1,0,0.95056152,0.10510254,0.03857422,0.28961182,-0.01806641,0.21533203,0.94335938,-0.5,1.8125,0.5,1.16315E+33,1.16315E+33,0,
4.45341849,0,-7,-13,-1,-3,1,2,1,0,0.95050049,0.10516357,0.03894043,0.28961182,-0.01611328,0.22021484,0.94873047,0.5625,1.8125,-0.0625,1.16315E+33,1.16315E+33,0,
4.46391034,0,-3,0,2,3,0,0,0,0,0.95050049,0.10522461,0.03930664,0.28955078,-0.01660156,0.22851562,0.9453125,-0.1875,1.375,-0.625,1.16315E+33,1.16315E+33,0,
4.47437811,0,6,-3,-1,0,1,-9,-2,0,0.95050049,0.10522461,0.03930664,0.28955078,-0.01660156,0.22851562,0.9453125,-0.1875,1.375,-0.625,1.16315E+33,1.16315E+33,0,
4.48480082,0,-1,-2,-1,-2,-1,-2,-2,0,0.95056152,0.10510254,0.03948975,0.28948975,-0.015625,0.23193359,0.94287109,-1.4375,1.0625,-0.625,1.16315E+33,1.16315E+33,0,
4.49525547,0,-1,-2,-1,-2,-1,-2,-2,0,0.95056152,0.10510254,0.03948975,0.28948975,-0.015625,0.23193359,0.94287109,-1.4375,1.0625,-0.625,1.16315E+33,1.16315E+33,0,
4.50563169,0,-1,-2,-1,-2,-1,-2,-2,0,0.95056152,0.10510254,0.03948975,0.28948975,-0.015625,0.23193359,0.94287109,-1.4375,1.0625,-0.625,1.16315E+33,1.16315E+33,0,
4.51602125,-4,-4,-6,-3,-1,0,-1,-1,0,0.95062256,0.10467529,0.03967285,0.28942871,-0.01757812,0.21777344,0.93505859,-2.5625,1.5625,-0.625,1.16315E+33,1.16315E+33,0,
4.52650642,-4,12,5,-2,-1,1,0,-1,0,0.95062256,0.10437012,0.0401001,0.28930664,-0.02929688,0.21142578,0.93798828,-0.625,1.75,-0.75,1.16315E+33,1.16315E+33,0,
4.53694773,-3,10,-9,-2,0,-2,2,-4,0,0.95062256,0.10461426,0.04071045,0.28912354,-0.03320312,0.21435547,0.93359375,2,1.5,-1.1875,1.16315E+33,1.16315E+33,0,
4.54743505,-3,10,-9,-2,0,-2,2,-4,0,0.95062256,0.10461426,0.04071045,0.28912354,-0.03320312,0.21435547,0.93359375,2,1.5,-1.1875,1.16315E+33,1.16315E+33,0,
4.55780482,0,8,1,0,-1,0,1,-2,0,0.95068359,0.1048584,0.04119873,0.28887939,-0.03613281,0.21875,0.93017578,1.8125,1,-1.25,1.16315E+33,1.16315E+33,0,
4.56829453,-3,-2,0,0,-1,1,-2,-1,0,0.95068359,0.1048584,0.04119873,0.28887939,-0.03613281,0.21875,0.93017578,1.8125,1,-1.25,1.16315E+33,1.16315E+33,0,
4.57869887,-1,-5,-11,-3,-2,-1,0,0,0,0.95074463,0.10473633,0.04150391,0.28869629,-0.02734375,0.20849609,0.9296875,0.0625,0.75,-1.3125,1.16315E+33,1.16315E+33,0,
4.58916259,1,-1,-1,-2,-1,-1,-3,-2,0,0.95074463,0.10473633,0.04150391,0.28869629,-0.02734375,0.20849609,0.9296875,0.0625,0.75,-1.3125,1.16315E+33,1.16315E+33,0,
4.59959126,-4,-6,-10,-2,-3,-2,-1,-1,0,0.95074463,0.10473633,0.04150391,0.28869629,-0.02734375,0.20849609,0.9296875,0.0625,0.75,-1.3125,1.16315E+33,1.16315E+33,0,
4.61001587,-3,-23,-6,-5,-3,-4,0,-3,0,0.95080566,0.10449219,0.04162598,0.28851318,-0.02685547,0.20849609,0.93164062,-0.8125,0.4375,-1.25,1.16315E+33,1.16315E+33,0,
4.6204772,-2,-3,-1,-1,0,0,-1,0,0,0.9508667,0.10437012,0.04180908,0.28826904,-0.02978516,0.20947266,0.93359375,-0.25,0.25,-1.375,1.16315E+33,1.16315E+33,0,
4.63097143,-2,-3,-1,-1,0,0,-1,0,0,0.9508667,0.10437012,0.04180908,0.28826904,-0.02978516,0.20947266,0.93359375,-0.25,0.25,-1.375,1.16315E+33,1.16315E+33,0,
4.64132738,1,-2,-2,2,4,1,-1,3,0,0.95092773,0.10430908,0.04193115,0.2880249,-0.02587891,0.20410156,0.93457031,0.5,0,-1.4375,1.16315E+33,1.16315E+33,0,
4.65176749,-3,-5,0,-2,-1,-4,2,-3,0,0.95092773,0.10430908,0.04193115,0.2880249,-0.02587891,0.20410156,0.93457031,0.5,0,-1.4375,1.16315E+33,1.16315E+33,0,
4.66228318,4,-19,-5,-2,0,-1,1,0,0,0.95092773,0.10430908,0.04193115,0.2880249,-0.02294922,0.20947266,0.93408203,-0.1875,0.0625,-0.9375,1.16315E+33,1.16315E+33,0,
4.67276955,0,3,-17,-2,-3,1,0,2,0,0.95092773,0.10430908,0.04193115,0.2880249,-0.02294922,0.20947266,0.93408203,-0.1875,0.0625,-0.9375,1.16315E+33,1.16315E+33,0,
4.6832056,2,9,5,1,0,1,-1,-1,0,0.95098877,0.10388184,0.04199219,0.28796387,-0.02734375,0.20556641,0.92919922,-1.75,0.5,-0.3125,1.16315E+33,1.16315E+33,0,
4.69365954,-2,-10,2,-4,-2,-3,-2,-2,0,0.9510498,0.10351562,0.04199219,0.2880249,-0.02197266,0.20605469,0.94189453,-1.5,0.4375,0,1.16315E+33,1.16315E+33,0,
4.70415449,-1,13,3,-2,-2,-1,-10,-2,0,0.9510498,0.10351562,0.04199219,0.2880249,-0.02197266,0.20605469,0.94189453,-1.5,0.4375,0,1.16315E+33,1.16315E+33,0,
4.71459293,0,6,3,0,-1,-2,-1,-2,0,0.9510498,0.10351562,0.04199219,0.2880249,-0.02197266,0.20605469,0.94189453,-1.5,0.4375,0,1.16315E+33,1.16315E+33,0,
4.72503376,0,-4,-3,1,1,0,-2,-2,0,0.9510498,0.10351562,0.04199219,0.2880249,-0.02001953,0.203125,0.93603516,-0.8125,0.5,0.0625,1.16315E+33,1.16315E+33,0,
4.73556566,0,-4,-3,1,1,0,-2,-2,0,0.9510498,0.10351562,0.04199219,0.2880249,-0.02832031,0.20996094,0.94287109,0.5,0.625,0.625,1.16315E+33,1.16315E+33,0,
4.74602509,-2,8,4,0,0,-1,1,1,0,0.9510498,0.10351562,0.04199219,0.2880249,-0.02832031,0.20996094,0.94287109,0.5,0.625,0.625,1.16315E+33,1.16315E+33,0,
4.75648642,-2,8,4,0,0,-1,1,1,0,0.9510498,0.10345459,0.04205322,0.2880249,-0.03271484,0.21240234,0.94824219,0.5625,0.25,0.75,1.16315E+33,1.16315E+33,0,
4.76692247,2,3,-9,0,0,1,-1,1,0,0.9510498,0.10345459,0.04205322,0.2880249,-0.03271484,0.21240234,0.94824219,0.5625,0.25,0.75,1.16315E+33,1.16315E+33,0,
4.77733064,2,3,-9,0,0,1,-1,1,0,0.9510498,0.10345459,0.04205322,0.2880249,-0.02685547,0.20654297,0.93994141,0.875,0.125,0.8125,1.16315E+33,1.16315E+33,0,
4.78776288,-3,-13,6,-2,1,0,-1,-3,0,0.9510498,0.10345459,0.04205322,0.2880249,-0.02685547,0.20654297,0.93994141,0.875,0.125,0.8125,1.16315E+33,1.16315E+33,0,
4.79834247,2,0,2,-3,0,1,0,2,0,0.9510498,0.10345459,0.04211426,0.2880249,-0.02783203,0.21386719,0.94189453,0.9375,0.25,0.25,1.16315E+33,1.16315E+33,0,
4.80928993,2,0,2,-3,0,1,0,2,0,0.9510498,0.10345459,0.04211426,0.2880249,-0.02783203,0.21386719,0.94189453,0.9375,0.25,0.25,1.16315E+33,1.16315E+33,0,
4.81993294,-1,-7,0,2,0,1,-8,-2,0,0.9510498,0.10345459,0.04211426,0.2880249,-0.02636719,0.22851562,0.93896484,-0.375,0.3125,0.4375,1.16315E+33,1.16315E+33,0,
4.83082461,-4,5,-3,-1,0,-1,-4,-2,0,0.9510498,0.10345459,0.04211426,0.2880249,-0.02636719,0.22851562,0.93896484,-0.375,0.3125,0.4375,1.16315E+33,1.16315E+33,0,
4.84159851,-5,-4,-3,-2,-1,-1,1,-3,0,0.9510498,0.10327148,0.04229736,0.28808594,-0.03222656,0.22412109,0.93896484,-1.6875,0.5625,0.5,1.16315E+33,1.16315E+33,0,
4.85248661,-1,5,-6,-1,-1,-1,2,0,0,0.9510498,0.10327148,0.0423584,0.28808594,-0.02783203,0.21142578,0.93847656,-0.375,0.5,0.625,1.16315E+33,1.16315E+33,0,
4.8633604,-1,5,-6,-1,-1,-1,2,0,0,0.9510498,0.10327148,0.0423584,0.28808594,-0.02783203,0.21142578,0.93847656,-0.375,0.5,0.625,1.16315E+33,1.16315E+33,0,
4.87401986,0,17,-1,-2,-2,0,1,0,0,0.9510498,0.10327148,0.0423584,0.28808594,-0.02783203,0.21142578,0.93847656,-0.375,0.5,0.625,1.16315E+33,1.16315E+33,0,
4.88481593,0,-19,-1,-3,-1,0,-2,0,0,0.95098877,0.10339355,0.04248047,0.28814697,-0.01953125,0.21142578,0.93310547,1,0.75,0.1875,1.16315E+33,1.16315E+33,0,
4.89561677,0,3,6,2,0,0,2,1,0,0.95098877,0.10339355,0.04248047,0.28814697,-0.01953125,0.21142578,0.93310547,1,0.75,0.1875,1.16315E+33,1.16315E+33,0,
4.90642023,0,19,2,3,1,-1,0,0,0,0.95098877,0.10369873,0.04272461,0.28814697,-0.02148438,0.21972656,0.93408203,1.5,0.625,-0.125,1.16315E+33,1.16315E+33,0,
4.91731858,-1,1,1,-2,-1,-3,-2,-4,0,0.95092773,0.10375977,0.04278564,0.28808594,-0.02832031,0.234375,0.93310547,0.1875,0.375,-0.125,1.16315E+33,1.16315E+33,0,
4.92820811,-2,18,-1,-2,-1,-2,-3,-1,0,0.95092773,0.10375977,0.04278564,0.28808594,-0.02832031,0.234375,0.93310547,0.1875,0.375,-0.125,1.16315E+33,1.16315E+33,0,
4.9389658,2,-2,-3,-3,-2,0,1,-2,0,0.95092773,0.1038208,0.04278564,0.28808594,-0.03027344,0.23046875,0.94042969,-0.125,-0.3125,-0.1875,1.16315E+33,1.16315E+33,0,
4.94983721,2,7,-1,0,-4,-1,0,-2,0,0.95092773,0.1038208,0.04278564,0.28808594,-0.03027344,0.23046875,0.94042969,-0.125,-0.3125,-0.1875,1.16315E+33,1.16315E+33,0,
4.96062303,-3,6,-17,-3,-1,0,1,-1,0,0.95092773,0.1038208,0.04284668,0.28808594,-0.02880859,0.21777344,0.93457031,0.375,-0.5,-0.5625,1.16315E+33,1.16315E+33,0,
4.9716177,-3,6,-17,-3,-1,0,1,-1,0,0.95092773,0.1038208,0.04284668,0.28808594,-0.02880859,0.21777344,0.93457031,0.375,-0.5,-0.5625,1.16315E+33,1.16315E+33,0,
4.98240447,-1,-4,0,-1,0,0,-2,1,0,0.95098877,0.10418701,0.04296875,0.28790283,-0.02734375,0.22216797,0.93212891,1.625,-0.3125,-1.125,1.16315E+33,1.16315E+33,0,
4.99335074,-2,-4,-12,-4,0,-3,1,0,0,0.95098877,0.10418701,0.04296875,0.28790283,-0.02734375,0.22216797,0.93212891,1.625,-0.3125,-1.125,1.16315E+33,1.16315E+33,0,
5.00414157,-2,-8,0,1,-1,-2,0,-1,0,0.95098877,0.10437012,0.04327393,0.28765869,-0.02783203,0.23095703,0.93310547,0.375,0.5625,-1.5,1.16315E+33,1.16315E+33,0,
5.01499319,-2,-8,0,1,-1,-2,0,-1,0,0.95098877,0.10437012,0.04327393,0.28765869,-0.02783203,0.23095703,0.93310547,0.375,0.5625,-1.5,1.16315E+33,1.16315E+33,0,
5.02565622,-4,5,-5,-2,-2,-4,1,-3,0,0.9510498,0.10437012,0.0435791,0.28735352,-0.03759766,0.22460938,0.93554688,-0.1875,0.5,-1.625,1.16315E+33,1.16315E+33,0,
5.03656435,-4,-12,-6,-2,-2,-2,-2,-2,0,0.95117188,0.10443115,0.04376221,0.28704834,-0.03271484,0.21728516,0.93652344,0.375,0.0625,-1.8125,1.16315E+33,1.16315E+33,0,
5.0474,0,-12,1,2,0,0,-2,-1,0,0.95117188,0.10443115,0.04376221,0.28704834,-0.03271484,0.21728516,0.93652344,0.375,0.0625,-1.8125,1.16315E+33,1.16315E+33,0,
5.05818057,-1,1,4,-1,-1,-1,-1,-1,0,0.95123291,0.10461426,0.04394531,0.28674316,-0.02978516,0.21386719,0.94042969,1.6875,-0.25,-1.6875,1.16315E+33,1.16315E+33,0,
5.06909537,-1,-9,1,-1,-2,-2,-1,0,0,0.95123291,0.10461426,0.04394531,0.28674316,-0.02978516,0.21386719,0.94042969,1.6875,-0.25,-1.6875,1.16315E+33,1.16315E+33,0,
5.07981277,1,-6,0,1,-2,-3,1,-1,0,0.95129395,0.10479736,0.04406738,0.28643799,-0.03125,0.21777344,0.93505859,1.0625,-0.3125,-1.5625,1.16315E+33,1.16315E+33,0,
5.09076405,1,0,11,1,-1,-2,0,-1,0,0.95129395,0.10479736,0.04406738,0.28643799,-0.03125,0.21777344,0.93505859,1.0625,-0.3125,-1.5625,1.16315E+33,1.16315E+33,0,
5.10152698,1,26,-4,0,-1,-1,-3,0,0,0.95135498,0.1048584,0.04418945,0.28619385,-0.03076172,0.21582031,0.93896484,0.5,-0.1875,-1.4375,1.16315E+33,1.16315E+33,0,
5.11249042,-3,11,-5,-1,-2,0,0,0,0,0.95135498,0.1048584,0.04418945,0.28619385,-0.03076172,0.21582031,0.93896484,0.5,-0.1875,-1.4375,1.16315E+33,1.16315E+33,0,
5.12327814,-3,11,-5,-1,-2,0,0,0,0,0.95141602,0.10510254,0.04437256,0.28594971,-0.03466797,0.21044922,0.93066406,1.75,-0.25,-1.4375,1.16315E+33,1.16315E+33,0,
5.13406754,-1,-6,-10,-3,1,0,-4,-2,0,0.95141602,0.10510254,0.04437256,0.28594971,-0.03466797,0.21044922,0.93066406,1.75,-0.25,-1.4375,1.16315E+33,1.16315E+33,0,
5.14482856,-4,-19,2,0,0,1,0,1,0,0.95141602,0.10522461,0.04455566,0.28570557,-0.03564453,0.21679688,0.93066406,0.875,-0.0625,-1.125,1.16315E+33,1.16315E+33,0,
5.15578842,-4,-19,2,0,0,1,0,1,0,0.95141602,0.10516357,0.04455566,0.28570557,-0.03369141,0.20800781,0.92871094,-0.25,-0.0625,-0.8125,1.16315E+33,1.16315E+33,0,
5.16651678,-1,-4,0,-1,-1,0,-2,-2,0,0.95141602,0.10516357,0.04455566,0.28570557,-0.03369141,0.20800781,0.92871094,-0.25,-0.0625,-0.8125,1.16315E+33,1.16315E+33,0,
5.17728829,-1,-4,0,-1,-1,0,-2,-2,0,0.95141602,0.10516357,0.0446167,0.28570557,-0.02783203,0.20654297,0.93652344,0.75,-0.125,-0.5625,1.16315E+33,1.16315E+33,0,
5.18816447,0,-1,2,-1,-1,0,1,1,0,0.95141602,0.10516357,0.0446167,0.28570557,-0.02783203,0.20654297,0.93652344,0.75,-0.125,-0.5625,1.16315E+33,1.16315E+33,0,
5.19878674,0,-1,2,-1,-1,0,1,1,0,0.95141602,0.10516357,0.0446167,0.28570557,-0.02783203,0.20654297,0.93652344,0.75,-0.125,-0.5625,1.16315E+33,1.16315E+33,0,
5.20914054,0,-1,2,-1,-1,0,1,1,0,0.95141602,0.10516357,0.0446167,0.28570557,-0.02783203,0.20654297,0.93652344,0.75,-0.125,-0.5625,1.16315E+33,1.16315E+33,0,
5.21949553,4,6,2,0,-2,-1,-4,0,0,0.95141602,0.10534668,0.04467773,0.28570557,-0.02636719,0.20947266,0.92529297,1.6875,0.0625,-0.0625,1.16315E+33,1.16315E+33,0,
5.22993898,3,-1,10,0,-2,-1,-4,1,0,0.95141602,0.10534668,0.04473877,0.28570557,-0.02880859,0.21533203,0.93603516,0.3125,0,0.0625,1.16315E+33,1.16315E+33,0,
5.24038029,-1,-6,-3,-1,2,-1,-1,-2,0,0.95141602,0.1050415,0.04473877,0.2857666,-0.03466797,0.21044922,0.93017578,-1.1875,-0.0625,0.3125,1.16315E+33,1.16315E+33,0,
5.25082207,0,-22,-4,1,-3,-2,-5,-2,0,0.95141602,0.1050415,0.04473877,0.2857666,-0.03466797,0.21044922,0.93017578,-1.1875,-0.0625,0.3125,1.16315E+33,1.16315E+33,0,
5.26123714,0,-22,-4,1,-3,-2,-5,-2,0,0.95141602,0.1050415,0.04473877,0.2857666,-0.03466797,0.21044922,0.93017578,-1.1875,-0.0625,0.3125,1.16315E+33,1.16315E+33,0,
5.27160788,2,-7,7,-2,-4,-5,-2,-2,0,0.95141602,0.1050415,0.04473877,0.2857666,-0.02880859,0.21289062,0.93017578,-0.9375,-0.1875,0.375,1.16315E+33,1.16315E+33,0,
5.28208756,3,4,-1,1,-1,1,0,0,0,0.95141602,0.1048584,0.0447998,0.28588867,-0.03027344,0.21679688,0.93164062,-1.0625,0.1875,0.625,1.16315E+33,1.16315E+33,0,
5.2926538,0,8,13,0,-2,-3,-1,-1,0,0.95141602,0.1048584,0.0447998,0.28588867,-0.03027344,0.21679688,0.93164062,-1.0625,0.1875,0.625,1.16315E+33,1.16315E+33,0,
5.30323696,-1,-7,-1,0,1,0,1,-2,0,0.95141602,0.1048584,0.0447998,0.28588867,-0.03076172,0.21582031,0.93261719,0.125,0.125,0.6875,1.16315E+33,1.16315E+33,0,
5.31372261,-1,-7,-1,0,1,0,1,-2,0,0.95141602,0.1048584,0.0447998,0.28588867,-0.03076172,0.21582031,0.93261719,0.125,0.125,0.6875,1.16315E+33,1.16315E+33,0,
5.32408428,1,-10,-2,1,1,-1,0,0,0,0.95141602,0.10491943,0.0447998,0.28588867,-0.02734375,0.22705078,0.93310547,-0.3125,-0.1875,0.1875,1.16315E+33,1.16315E+33,0,
5.33453751,0,-7,-5,1,-1,-2,0,0,0,0.95141602,0.10461426,0.04467773,0.28588867,-0.03076172,0.21679688,0.93359375,-1.875,-0.875,0.125,1.16315E+33,1.16315E+33,0,
5.34502101,0,-7,-5,1,-1,-2,0,0,0,0.95141602,0.10461426,0.04467773,0.28588867,-0.03076172,0.21679688,0.93359375,-1.875,-0.875,0.125,1.16315E+33,1.16315E+33,0,
5.35540104,2,-6,3,-4,-1,-1,-10,-3,0,0.95147705,0.10437012,0.04449463,0.28582764,-0.03320312,0.21679688,0.9375,-1.875,-1.25,-0.25,1.16315E+33,1.16315E+33,0,
5.36588383,0,18,0,-4,-5,-2,-5,-1,0,0.95147705,0.10437012,0.04449463,0.28582764,-0.03320312,0.21679688,0.9375,-1.875,-1.25,-0.25,1.16315E+33,1.16315E+33,0,
5.37629199,-2,10,7,0,1,0,2,-1,0,0.95153809,0.10418701,0.04431152,0.2857666,-0.03515625,0.22021484,0.93798828,-1.75,-1.4375,-0.125,1.16315E+33,1.16315E+33,0,
5.38677669,-3,23,3,-2,-3,-2,-1,-2,0,0.95153809,0.10418701,0.04431152,0.2857666,-0.03515625,0.22021484,0.93798828,-1.75,-1.4375,-0.125,1.16315E+33,1.16315E+33,0,
5.39719868,0,7,2,2,0,1,2,2,0,0.95159912,0.10388184,0.04418945,0.28570557,-0.03759766,0.21582031,0.94091797,-2.0625,-1.25,-0.1875,1.16315E+33,1.16315E+33,0,
5.40771794,-1,-1,-8,0,-1,0,0,1,0,0.95159912,0.10388184,0.04418945,0.28570557,-0.03759766,0.21582031,0.94091797,-2.0625,-1.25,-0.1875,1.16315E+33,1.16315E+33,0,
5.41817832,-1,-1,-8,0,-1,0,0,1,0,0.95159912,0.10388184,0.04418945,0.28570557,-0.03759766,0.21582031,0.94091797,-2.0625,-1.25,-0.1875,1.16315E+33,1.16315E+33,0,
5.42854095,-1,-1,-8,0,-1,0,0,1,0,0.95159912,0.10388184,0.04418945,0.28570557,-0.03759766,0.21582031,0.94091797,-2.0625,-1.25,-0.1875,1.16315E+33,1.16315E+33,0,
5.43890095,0,-9,0,0,0,-2,0,-2,0,0.95166016,0.10351562,0.04406738,0.28564453,-0.02685547,0.22558594,0.93505859,-1.6875,-0.3125,-0.3125,1.16315E+33,1.16315E+33,0,
5.44934654,-1,21,-3,2,1,0,3,-1,0,0.95166016,0.10351562,0.04406738,0.28564453,-0.02685547,0.22558594,0.93505859,-1.6875,-0.3125,-0.3125,1.16315E+33,1.16315E+33,0,
5.45978189,-5,-18,-4,-4,0,-1,0,-3,0,0.95172119,0.10290527,0.04394531,0.28570557,-0.02978516,0.21728516,0.93994141,-3.8125,0.25,0.125,1.16315E+33,1.16315E+33,0,
5.47024822,-5,-18,-4,-4,0,-1,0,-3,0,0.95172119,0.10290527,0.04394531,0.28570557,-0.02978516,0.21728516,0.93994141,-3.8125,0.25,0.125,1.16315E+33,1.16315E+33,0,
5.48061299,-1,15,-1,-2,-2,-2,9,1,0,0.95178223,0.10211182,0.04388428,0.28570557,-0.02783203,0.21337891,0.94824219,-4.625,0.6875,-0.0625,1.16315E+33,1.16315E+33,0,
5.49107456,-2,-8,0,0,-2,-2,-4,-1,0,0.95178223,0.10211182,0.04388428,0.28570557,-0.02783203,0.21337891,0.94824219,-4.625,0.6875,-0.0625,1.16315E+33,1.16315E+33,0,
5.5014863,1,-3,-4,-2,-2,-2,0,-1,0,0.95184326,0.10137939,0.04388428,0.2857666,-0.03466797,0.21484375,0.94970703,-4.25,0.5625,-0.0625,1.16315E+33,1.16315E+33,0,
5.5119257,1,11,-3,-4,-3,-2,-3,1,0,0.9519043,0.10076904,0.04382324,0.28582764,-0.02832031,0.20947266,0.94140625,-3.5,0.3125,0.25,1.16315E+33,1.16315E+33,0,
5.52241063,3,-14,3,2,4,1,-4,2,0,0.9519043,0.10076904,0.04382324,0.28582764,-0.02832031,0.20947266,0.94140625,-3.5,0.3125,0.25,1.16315E+33,1.16315E+33,0,
5.53286242,-6,-20,4,1,-1,-1,-1,-1,0,0.9519043,0.10076904,0.04382324,0.28582764,-0.02832031,0.20947266,0.94140625,-3.5,0.3125,0.25,1.16315E+33,1.16315E+33,0,
5.54329515,3,1,-5,0,0,2,0,0,0,0.95196533,0.10040283,0.04388428,0.28588867,-0.03271484,0.20947266,0.93359375,-2.25,0.375,0.25,1.16315E+33,1.16315E+33,0,
5.55379009,1,-7,-2,1,1,0,-1,1,0,0.95196533,0.10040283,0.04388428,0.28588867,-0.03271484,0.20947266,0.93359375,-2.25,0.375,0.25,1.16315E+33,1.16315E+33,0,
5.56419277,-3,15,-4,-1,-3,-1,-1,-3,0,0.95196533,0.09997559,0.04388428,0.28601074,-0.03222656,0.21289062,0.93603516,-2.875,0.25,0.5625,1.16315E+33,1.16315E+33,0,
5.57465911,-3,15,-4,-1,-3,-1,-1,-3,0,0.95196533,0.09997559,0.04388428,0.28601074,-0.03222656,0.21289062,0.93603516,-2.875,0.25,0.5625,1.16315E+33,1.16315E+33,0,
5.58502269,1,-22,-20,-5,-2,-1,1,-2,0,0.95196533,0.09942627,0.04376221,0.28613281,-0.03417969,0.19189453,0.94628906,-2,-0.0625,0.875,1.16315E+33,1.16315E+33,0,
5.59549904,1,-9,5,-1,-2,-1,-5,-2,0,0.9519043,0.09942627,0.04382324,0.28631592,-0.03369141,0.19287109,0.93310547,0.9375,-0.1875,1,1.16315E+33,1.16315E+33,0,
5.60594463,0,4,1,-1,-1,-1,1,1,0,0.9519043,0.09942627,0.04382324,0.28631592,-0.03369141,0.19287109,0.93310547,0.9375,-0.1875,1,1.16315E+33,1.16315E+33,0,
5.61638665,5,21,8,4,1,1,1,2,0,0.9519043,0.09942627,0.04382324,0.28631592,-0.03369141,0.19287109,0.93310547,0.9375,-0.1875,1,1.16315E+33,1.16315E+33,0,
5.62684464,-2,-2,-13,-3,-1,-2,0,-1,0,0.95178223,0.10003662,0.04406738,0.28643799,-0.03662109,0.21728516,0.92529297,2.8125,-0.375,1,1.16315E+33,1.16315E+33,0,
5.63737345,-2,-2,-13,-3,-1,-2,0,-1,0,0.95178223,0.10003662,0.04406738,0.28643799,-0.03662109,0.21728516,0.92529297,2.8125,-0.375,1,1.16315E+33,1.16315E+33,0,
5.64779234,3,0,-5,-1,-2,0,1,0,0,0.95172119,0.10015869,0.04412842,0.28662109,-0.03417969,0.2265625,0.91943359,-1,-0.25,1.375,1.16315E+33,1.16315E+33,0,
5.65833926,3,0,-5,-1,-2,0,1,0,0,0.95172119,0.10015869,0.04412842,0.28662109,-0.03417969,0.2265625,0.91943359,-1,-0.25,1.375,1.16315E+33,1.16315E+33,0,
5.66869855,3,0,-5,-1,-2,0,1,0,0,0.95172119,0.10015869,0.04412842,0.28662109,-0.03417969,0.2265625,0.91943359,-1,-0.25,1.375,1.16315E+33,1.16315E+33,0,
5.67906499,-2,-3,0,-2,0,-3,-1,0,0,0.95166016,0.09918213,0.04418945,0.28710938,-0.03417969,0.19189453,0.9375,-0.25,0.5,1.1875,1.16315E+33,1.16315E+33,0,
5.6895802,1,0,4,2,0,-1,-2,-1,0,0.95166016,0.09918213,0.04418945,0.28710938,-0.03417969,0.19189453,0.9375,-0.25,0.5,1.1875,1.16315E+33,1.16315E+33,0,
5.69998074,2,4,4,-4,-3,-4,-3,-2,0,0.95153809,0.09985352,0.04437256,0.28729248,-0.03955078,0.21191406,0.93896484,3.4375,-0.625,1.3125,1.16315E+33,1.16315E+33,0,
5.71040821,-2,-6,-1,-3,-1,-2,-2,0,0,0.95153809,0.09985352,0.04437256,0.28729248,-0.03955078,0.21191406,0.93896484,3.4375,-0.625,1.3125,1.16315E+33,1.16315E+33,0,
5.72080898,-5,-13,-16,-4,-3,0,-1,-2,0,0.95141602,0.10040283,0.04437256,0.28741455,-0.03320312,0.22802734,0.93457031,1.75,-1.3125,1.0625,1.16315E+33,1.16315E+33,0,
5.731359,-1,9,5,1,-1,-1,1,-1,0,0.95141602,0.10040283,0.04437256,0.28741455,-0.03320312,0.22802734,0.93457031,1.75,-1.3125,1.0625,1.16315E+33,1.16315E+33,0,
5.74181032,-1,-1,2,1,-1,0,-1,0,0,0.95141602,0.1003418,0.04418945,0.28759766,-0.02783203,0.22509766,0.93066406,-2.0625,-1.3125,0.9375,1.16315E+33,1.16315E+33,0,
5.75233674,-2,-12,0,-3,-1,-1,-2,-2,0,0.95141602,0.09991455,0.04394531,0.28771973,-0.02783203,0.20751953,0.93847656,-2.875,-0.75,0.75,1.16315E+33,1.16315E+33,0,
5.76275539,-2,-12,0,-3,-1,-1,-2,-2,0,0.95141602,0.09991455,0.04394531,0.28771973,-0.02783203,0.20751953,0.93847656,-2.875,-0.75,0.75,1.16315E+33,1.16315E+33,0,
5.77310324,-2,-12,0,-3,-1,-1,-2,-2,0,0.95141602,0.09991455,0.04394531,0.28771973,-0.02783203,0.20751953,0.93847656,-2.875,-0.75,0.75,1.16315E+33,1.16315E+33,0,
5.78344607,-2,-13,-7,-2,-1,-1,-4,-1,0,0.95141602,0.09991455,0.04394531,0.28771973,-0.02685547,0.20458984,0.93701172,-0.625,-0.1875,0.5,1.16315E+33,1.16315E+33,0,
5.79388094,-1,-12,-7,-1,-1,0,0,1,0,0.95141602,0.09991455,0.04394531,0.28771973,-0.02685547,0.20458984,0.93701172,-0.625,-0.1875,0.5,1.16315E+33,1.16315E+33,0,
5.80426908,2,-5,6,-1,1,1,-1,1,0,0.95141602,0.09997559,0.04394531,0.28771973,-0.02490234,0.22021484,0.94091797,0.1875,0.0625,0.4375,1.16315E+33,1.16315E+33,0,
5.81470251,2,-5,6,-1,1,1,-1,1,0,0.95141602,0.09997559,0.04394531,0.28771973,-0.02490234,0.22021484,0.94091797,0.1875,0.0625,0.4375,1.16315E+33,1.16315E+33,0,
5.82503843,0,-4,2,-2,1,-1,0,0,0,0.95141602,0.09997559,0.04394531,0.28771973,-0.02636719,0.21435547,0.93212891,-1,0.25,0.875,1.16315E+33,1.16315E+33,0,
5.83546162,1,3,-3,0,0,0,-1,-4,0,0.95141602,0.09997559,0.04394531,0.28771973,-0.02636719,0.21435547,0.93212891,-1,0.25,0.875,1.16315E+33,1.16315E+33,0,
5.84586835,1,10,0,1,2,0,-2,0,0,0.95141602,0.09973145,0.04394531,0.2878418,-0.03173828,0.20996094,0.94091797,-1.5,0.0625,0.8125,1.16315E+33,1.16315E+33,0,
5.85633159,-7,2,-2,-2,-3,-3,-2,-4,0,0.95141602,0.09973145,0.04394531,0.2878418,-0.03173828,0.20996094,0.94091797,-1.5,0.0625,0.8125,1.16315E+33,1.16315E+33,0,
5.86676383,5,8,4,2,-1,-2,-2,1,0,0.95141602,0.09973145,0.04400635,0.2878418,-0.03955078,0.21044922,0.95068359,-0.875,-0.125,0.3125,1.16315E+33,1.16315E+33,0,
5.87719846,0,-2,-1,-1,-1,0,0,-1,0,0.95141602,0.09973145,0.04400635,0.2878418,-0.03613281,0.20800781,0.94335938,0.375,-0.4375,0.3125,1.16315E+33,1.16315E+33,0,
5.88767338,-1,-6,-11,-2,-2,-2,-3,0,0,0.95141602,0.09973145,0.04400635,0.2878418,-0.03613281,0.20800781,0.94335938,0.375,-0.4375,0.3125,1.16315E+33,1.16315E+33,0,
5.89809561,0,-7,-1,-5,-1,-1,-1,-4,0,0.95141602,0.09973145,0.04406738,0.2878418,-0.03076172,0.21337891,0.94091797,0.9375,-0.6875,0.625,1.16315E+33,1.16315E+33,0,
5.90868497,0,-7,-1,-5,-1,-1,-1,-4,0,0.95141602,0.09973145,0.04406738,0.2878418,-0.03076172,0.21337891,0.94091797,0.9375,-0.6875,0.625,1.16315E+33,1.16315E+33,0,
5.91931081,-5,-16,-3,-3,0,0,-3,-2,0,0.95141602,0.09979248,0.04406738,0.2878418,-0.02441406,0.21582031,0.92724609,-0.5625,-0.5,0.5,1.16315E+33,1.16315E+33,0,
5.93025208,-1,14,-6,-3,-1,-1,1,-1,0,0.95141602,0.09979248,0.04406738,0.2878418,-0.02441406,0.21582031,0.92724609,-0.5625,-0.5,0.5,1.16315E+33,1.16315E+33,0,
5.94109058,-1,-1,1,-1,-1,-2,-1,-1,0,0.95141602,0.09979248,0.04406738,0.2878418,-0.03466797,0.20703125,0.94140625,-1,-0.125,0.5,1.16315E+33,1.16315E+33,0,
5.95192528,-1,-1,1,-1,-1,-2,-1,-1,0,0.95141602,0.09979248,0.04406738,0.2878418,-0.03466797,0.20703125,0.94140625,-1,-0.125,0.5,1.16315E+33,1.16315E+33,0,
5.96273398,1,19,6,1,-1,-1,0,0,0,0.95141602,0.09973145,0.04412842,0.2878418,-0.03759766,0.20214844,0.93603516,-0.5,-0.1875,0.375,1.16315E+33,1.16315E+33,0,
5.97376013,-3,12,-5,-1,1,0,-1,-1,0,0.95141602,0.09973145,0.04412842,0.2878418,-0.03759766,0.20214844,0.93603516,-0.5,-0.1875,0.375,1.16315E+33,1.16315E+33,0,
5.98482442,-4,0,4,-1,-1,-1,-2,-3,0,0.95141602,0.09973145,0.04412842,0.2878418,-0.03369141,0.20654297,0.93798828,-0.4375,-0.375,0.4375,1.16315E+33,1.16315E+33,0,
5.99585247,-3,4,4,0,0,-1,-1,-2,0,0.95141602,0.09973145,0.04412842,0.2878418,-0.02636719,0.20507812,0.93115234,-0.1875,-0.625,0.5625,1.16315E+33,1.16315E+33,0,
6.00670099,1,-9,-3,1,0,-2,-3,-1,0,0.95141602,0.09973145,0.04412842,0.2878418,-0.02636719,0.20507812,0.93115234,-0.1875,-0.625,0.5625,1.16315E+33,1.16315E+33,0,
6.01722217,1,-9,-3,1,0,-2,-3,-1,0,0.95141602,0.09973145,0.04412842,0.2878418,-0.02880859,0.20996094,0.9375,-0.6875,-0.625,0.6875,1.16315E+33,1.16315E+33,0,
6.02770877,0,-2,3,-2,-2,-2,-4,-1,0,0.95141602,0.09973145,0.04412842,0.2878418,-0.02880859,0.20996094,0.9375,-0.6875,-0.625,0.6875,1.16315E+33,1.16315E+33,0,
6.03817153,-1,1,6,0,-1,-3,1,0,0,0.95141602,0.09973145,0.04412842,0.2878418,-0.02880859,0.20996094,0.9375,-0.6875,-0.625,0.6875,1.16315E+33,1.16315E+33,0,
6.04866028,2,1,4,0,2,1,0,2,0,0.95141602,0.09973145,0.04418945,0.2878418,-0.03271484,0.20898438,0.93847656,-1,-0.625,0.5,1.16315E+33,1.16315E+33,0,
6.05912232,2,-5,9,-1,-1,1,-2,0,0,0.95141602,0.09954834,0.04406738,0.28790283,-0.02783203,0.20654297,0.93505859,-1.4375,-0.25,0.4375,1.16315E+33,1.16315E+33,0,
6.06961417,1,-8,10,-1,-1,-1,-2,1,0,0.95141602,0.09954834,0.04406738,0.28790283,-0.02783203,0.20654297,0.93505859,-1.4375,-0.25,0.4375,1.16315E+33,1.16315E+33,0,
6.08010864,1,6,-7,2,0,-1,1,-1,0,0.95141602,0.09936523,0.04400635,0.28796387,-0.03076172,0.20458984,0.94189453,-1.0625,-0.4375,0.5625,1.16315E+33,1.16315E+33,0,
6.09068465,0,3,-4,-2,0,-1,-1,-3,0,0.95141602,0.09936523,0.04400635,0.28796387,-0.03076172,0.20458984,0.94189453,-1.0625,-0.4375,0.5625,1.16315E+33,1.16315E+33,0,
6.10106277,-1,5,-2,-1,2,0,-12,-2,0,0.95141602,0.0993042,0.04400635,0.28796387,-0.03222656,0.19677734,0.94384766,0.0625,-0.625,0.75,1.16315E+33,1.16315E+33,0,
6.1115222,1,1,-3,-1,0,0,-1,0,0,0.95141602,0.0993042,0.04400635,0.28796387,-0.03222656,0.19677734,0.94384766,0.0625,-0.625,0.75,1.16315E+33,1.16315E+33,0,
6.12193179,1,1,-3,-1,0,0,-1,0,0,0.95141602,0.0993042,0.04400635,0.28796387,-0.03222656,0.19677734,0.94384766,0.0625,-0.625,0.75,1.16315E+33,1.16315E+33,0,
6.13235021,0,-9,-2,-2,-1,-1,1,-2,0,0.95141602,0.0993042,0.04400635,0.28796387,-0.03076172,0.20751953,0.93945312,-0.0625,-0.4375,0.4375,1.16315E+33,1.16315E+33,0,
6.1428144,-2,-2,-4,-1,-1,-1,1,-2,0,0.95141602,0.09936523,0.04406738,0.28796387,-0.03076172,0.21728516,0.93994141,-0.4375,-0.5,0.25,1.16315E+33,1.16315E+33,0,
6.15324354,-2,0,-5,0,1,2,1,2,0,0.95141602,0.09936523,0.04406738,0.28796387,-0.03076172,0.21728516,0.93994141,-0.4375,-0.5,0.25,1.16315E+33,1.16315E+33,0,
6.16365314,1,13,2,-4,-3,-2,1,-2,0,0.95141602,0.09936523,0.04406738,0.28796387,-0.03027344,0.20996094,0.94238281,-1,-0.625,0.625,1.16315E+33,1.16315E+33,0,
6.17414093,0,0,0,-1,0,-1,-1,-2,0,0.95141602,0.0993042,0.04406738,0.28796387,-0.02685547,0.19873047,0.94335938,-0.25,-0.75,0.75,1.16315E+33,1.16315E+33,0,
6.18473744,0,8,3,-1,-4,-2,2,0,0,0.95141602,0.0993042,0.04406738,0.28796387,-0.02685547,0.19873047,0.94335938,-0.25,-0.75,0.75,1.16315E+33,1.16315E+33,0,
6.19513202,1,-18,2,3,-3,0,-2,-1,0,0.95141602,0.0993042,0.04406738,0.28796387,-0.02685547,0.20703125,0.94482422,0.1875,-0.375,0.1875,1.16315E+33,1.16315E+33,0,
6.20562577,3,-4,-4,0,-1,0,3,2,0,0.95141602,0.0993042,0.04406738,0.28796387,-0.02685547,0.20703125,0.94482422,0.1875,-0.375,0.1875,1.16315E+33,1.16315E+33,0,
6.2160356,0,2,3,-1,-1,-1,0,1,0,0.95141602,0.0993042,0.04406738,0.28796387,-0.02685547,0.20703125,0.94482422,0.1875,-0.375,0.1875,1.16315E+33,1.16315E+33,0,
6.22647524,1,6,0,1,0,1,0,1,0,0.95141602,0.09936523,0.04406738,0.28796387,-0.03027344,0.21435547,0.94287109,0,-0.0625,0.1875,1.16315E+33,1.16315E+33,0,
6.23695564,1,6,0,1,0,1,0,1,0,0.95141602,0.09924316,0.04418945,0.2880249,-0.03662109,0.21435547,0.93554688,-1.125,0.125,0.125,1.16315E+33,1.16315E+33,0,
6.24734187,2,22,-9,-1,-2,-1,0,1,0,0.95141602,0.09924316,0.04418945,0.2880249,-0.03662109,0.21435547,0.93554688,-1.125,0.125,0.125,1.16315E+33,1.16315E+33,0,
6.25777674,2,22,-9,-1,-2,-1,0,1,0,0.95141602,0.09924316,0.04418945,0.2880249,-0.03662109,0.21435547,0.93554688,-1.125,0.125,0.125,1.16315E+33,1.16315E+33,0,
6.26813793,3,-10,-5,1,1,1,-1,0,0,0.95141602,0.09924316,0.04418945,0.2880249,-0.02636719,0.20556641,0.93554688,-0.6875,-0.1875,0.1875,1.16315E+33,1.16315E+33,0,
6.27860165,-3,7,4,1,-1,-1,-4,0,0,0.95141602,0.09918213,0.04418945,0.2880249,-0.02734375,0.203125,0.94287109,0.125,-0.1875,0.0625,1.16315E+33,1.16315E+33,0,
6.28905129,-3,-9,-6,-3,-2,0,0,-1,0,0.95141602,0.09918213,0.04418945,0.2880249,-0.02734375,0.203125,0.94287109,0.125,-0.1875,0.0625,1.16315E+33,1.16315E+33,0,
6.29950094,-2,2,2,2,1,0,0,0,0,0.95141602,0.09918213,0.04418945,0.2880249,-0.03125,0.20849609,0.94238281,0.25,-0.1875,0.0625,1.16315E+33,1.16315E+33,0,
6.30995607,-2,2,2,2,1,0,0,0,0,0.95141602,0.09918213,0.04418945,0.2880249,-0.03125,0.20849609,0.94238281,0.25,-0.1875,0.0625,1.16315E+33,1.16315E+33,0,
6.3203063,-2,-5,0,-1,-3,-1,-1,-2,0,0.95141602,0.09924316,0.04425049,0.2880249,-0.03417969,0.21289062,0.94970703,-0.625,0.1875,-0.125,1.16315E+33,1.16315E+33,0,
6.33077741,0,1,3,-1,1,1,-1,-1,0,0.95141602,0.09924316,0.04425049,0.2880249,-0.03417969,0.21289062,0.94970703,-0.625,0.1875,-0.125,1.16315E+33,1.16315E+33,0,
6.34118366,-3,2,6,-2,0,-1,-2,-1,0,0.95141602,0.09918213,0.04425049,0.2880249,-0.03369141,0.20556641,0.94091797,-0.625,-0.3125,0.1875,1.16315E+33,1.16315E+33,0,
6.35158944,-1,-9,-10,-1,-1,0,1,-1,0,0.95141602,0.09924316,0.04425049,0.2880249,-0.02832031,0.20996094,0.94091797,0,0.0625,0,1.16315E+33,1.16315E+33,0,
6.36207032,0,-2,0,-3,-1,-1,-2,-2,0,0.95141602,0.09924316,0.04425049,0.2880249,-0.02832031,0.20996094,0.94091797,0,0.0625,0,1.16315E+33,1.16315E+33,0,
6.37255406,0,-2,0,-3,-1,-1,-2,-2,0,0.95141602,0.09924316,0.04425049,0.2880249,-0.02832031,0.20996094,0.94091797,0,0.0625,0,1.16315E+33,1.16315E+33,0,
6.38291454,5,4,-1,2,-2,0,-1,1,0,0.95141602,0.09924316,0.04425049,0.28796387,-0.02832031,0.20800781,0.93115234,0.3125,-0.125,0.25,1.16315E+33,1.16315E+33,0,
6.39335561,2,-8,2,-3,-5,-3,0,-2,0,0.95141602,0.09924316,0.04425049,0.28796387,-0.02832031,0.20800781,0.93115234,0.3125,-0.125,0.25,1.16315E+33,1.16315E+33,0,
6.40377879,2,-8,-4,0,1,0,0,-1,0,0.95141602,0.09924316,0.04431152,0.28796387,-0.03417969,0.20996094,0.93408203,0.1875,0.3125,0.1875,1.16315E+33,1.16315E+33,0,
6.41421103,2,-8,-4,0,1,0,0,-1,0,0.95141602,0.09924316,0.04431152,0.28796387,-0.02978516,0.20898438,0.93652344,-0.125,0.3125,0.0625,1.16315E+33,1.16315E+33,0,
6.42460465,-4,-9,0,-2,-2,-2,-3,-2,0,0.95141602,0.09924316,0.04431152,0.28796387,-0.02978516,0.20898438,0.93652344,-0.125,0.3125,0.0625,1.16315E+33,1.16315E+33,0,
6.43505287,0,4,-6,-4,-1,-2,-1,-1,0,0.95141602,0.09924316,0.04431152,0.28796387,-0.03027344,0.20507812,0.93457031,-0.9375,0.375,0.3125,1.16315E+33,1.16315E+33,0,
6.44550347,1,15,0,-3,-2,-3,-2,-1,0,0.95141602,0.09924316,0.04431152,0.28796387,-0.03027344,0.20507812,0.93457031,-0.9375,0.375,0.3125,1.16315E+33,1.16315E+33,0,
6.45590448,-3,19,0,0,1,-1,-2,-1,0,0.95141602,0.09924316,0.04431152,0.28796387,-0.03027344,0.20507812,0.93457031,-0.9375,0.375,0.3125,1.16315E+33,1.16315E+33,0,
6.46628547,1,3,1,-1,-1,-2,0,1,0,0.95141602,0.09924316,0.04431152,0.28796387,-0.03222656,0.20068359,0.9375,-0.9375,0.25,0.25,1.16315E+33,1.16315E+33,0,
6.4767549,1,3,1,-1,-1,-2,0,1,0,0.95141602,0.09918213,0.04437256,0.28796387,-0.03710938,0.20263672,0.93359375,0.375,-0.3125,0.25,1.16315E+33,1.16315E+33,0,
6.48714042,-4,-18,-7,-1,-2,-3,-3,-1,0,0.95141602,0.09918213,0.04437256,0.28796387,-0.03710938,0.20263672,0.93359375,0.375,-0.3125,0.25,1.16315E+33,1.16315E+33,0,
6.49756312,-4,-18,-7,-1,-2,-3,-3,-1,0,0.95135498,0.09942627,0.04443359,0.2880249,-0.03955078,0.20849609,0.93408203,1,-1,0.3125,1.16315E+33,1.16315E+33,0,
6.50801158,2,3,-1,0,-3,-1,-2,0,0,0.95135498,0.09942627,0.04443359,0.2880249,-0.03955078,0.20849609,0.93408203,1,-1,0.3125,1.16315E+33,1.16315E+33,0,
6.51841378,2,-14,-3,1,2,0,2,2,0,0.95135498,0.09942627,0.04431152,0.28796387,-0.03271484,0.20996094,0.93408203,-0.5,-1.25,0.0625,1.16315E+33,1.16315E+33,0,
6.52889967,2,-14,-3,1,2,0,2,2,0,0.95135498,0.09942627,0.04431152,0.28796387,-0.03271484,0.20996094,0.93408203,-0.5,-1.25,0.0625,1.16315E+33,1.16315E+33,0,
6.53925371,2,4,5,0,2,1,2,-1,0,0.95141602,0.09942627,0.04406738,0.2880249,-0.03222656,0.20654297,0.93701172,-0.5625,-1.4375,0.3125,1.16315E+33,1.16315E+33,0,
6.5497117,2,4,5,0,2,1,2,-1,0,0.95141602,0.09942627,0.04406738,0.2880249,-0.03222656,0.20654297,0.93701172,-0.5625,-1.4375,0.3125,1.16315E+33,1.16315E+33,0,
6.56006169,0,-9,5,-2,-1,1,0,-2,0,0.95141602,0.09942627,0.04412842,0.2880249,-0.03076172,0.20751953,0.93212891,-0.375,-0.9375,0.125,1.16315E+33,1.16315E+33,0,
6.57047391,0,-6,-4,0,2,0,1,0,0,0.95141602,0.09942627,0.04412842,0.2880249,-0.03076172,0.20751953,0.93212891,-0.375,-0.9375,0.125,1.16315E+33,1.16315E+33,0,
6.58088017,0,-6,-4,0,2,0,1,0,0,0.95141602,0.09942627,0.04412842,0.2880249,-0.03466797,0.203125,0.93652344,0.25,-0.875,0.3125,1.16315E+33,1.16315E+33,0,
6.59128189,-3,4,4,-2,-1,0,-8,-5,0,0.95141602,0.09942627,0.04412842,0.2880249,-0.03466797,0.203125,0.93652344,0.25,-0.875,0.3125,1.16315E+33,1.16315E+33,0,
6.60170555,-1,-1,-4,-2,-1,-1,-1,-2,0,0.95141602,0.09942627,0.04412842,0.2880249,-0.02734375,0.20507812,0.93896484,0.125,-0.6875,0.375,1.16315E+33,1.16315E+33,0,
6.61216593,-1,-1,-4,-2,-1,-1,-1,-2,0,0.95141602,0.09942627,0.04412842,0.2880249,-0.02734375,0.20507812,0.93896484,0.125,-0.6875,0.375,1.16315E+33,1.16315E+33,0,
6.62261748,3,12,-3,-2,-2,-1,2,2,0,0.95141602,0.09942627,0.04412842,0.2880249,-0.02734375,0.20605469,0.93603516,-0.625,-0.625,0.75,1.16315E+33,1.16315E+33,0,
6.63306046,1,-10,-3,2,0,-2,1,-2,0,0.95141602,0.09942627,0.04412842,0.2880249,-0.02734375,0.20605469,0.93603516,-0.625,-0.625,0.75,1.16315E+33,1.16315E+33,0,
6.64344096,-3,-2,4,0,0,-1,0,1,0,0.95141602,0.09936523,0.04418945,0.2880249,-0.03613281,0.20214844,0.94091797,-0.75,-0.875,0.9375,1.16315E+33,1.16315E+33,0,
6.65391922,-3,-2,4,0,0,-1,0,1,0,0.95141602,0.09936523,0.04418945,0.2880249,-0.03613281,0.20214844,0.94091797,-0.75,-0.875,0.9375,1.16315E+33,1.16315E+33,0,
6.66426706,-3,-2,4,0,0,-1,0,1,0,0.95141602,0.09936523,0.04418945,0.2880249,-0.03613281,0.20214844,0.94091797,-0.75,-0.875,0.9375,1.16315E+33,1.16315E+33,0,
6.67461085,0,-4,4,-1,0,-1,-4,-1,0,0.95141602,0.09936523,0.04418945,0.2880249,-0.02880859,0.20507812,0.93896484,0.5,-0.9375,0.75,1.16315E+33,1.16315E+33,0,
6.68505239,0,-4,4,-1,0,-1,-4,-1,0,0.95129395,0.09967041,0.04412842,0.28814697,-0.02832031,0.21435547,0.93652344,0.875,-1,1.1875,1.16315E+33,1.16315E+33,0,
6.69545269,-2,-10,-3,-2,-1,-1,-4,-1,0,0.95129395,0.09967041,0.04412842,0.28814697,-0.02832031,0.21435547,0.93652344,0.875,-1,1.1875,1.16315E+33,1.16315E+33,0,
6.70598912,-2,-13,-3,-2,-1,-1,-2,-3,0,0.95129395,0.0994873,0.04400635,0.28833008,-0.02929688,0.21337891,0.93994141,-1.5625,-0.4375,1.0625,1.16315E+33,1.16315E+33,0,
6.71680403,0,3,-10,1,2,1,-1,0,0,0.95129395,0.0994873,0.04400635,0.28833008,-0.02929688,0.21337891,0.93994141,-1.5625,-0.4375,1.0625,1.16315E+33,1.16315E+33,0,
6.72760773,1,-4,-14,0,-1,-1,2,2,0,0.95129395,0.09918213,0.04382324,0.28851318,-0.02636719,0.19921875,0.95117188,-1.4375,-0.4375,0.9375,1.16315E+33,1.16315E+33,0,
6.73860669,1,-4,-14,0,-1,-1,2,2,0,0.95129395,0.09918213,0.04382324,0.28851318,-0.02636719,0.19921875,0.95117188,-1.4375,-0.4375,0.9375,1.16315E+33,1.16315E+33,0,
6.74928212,-2,31,4,3,-2,0,-2,-1,0,0.95129395,0.09918213,0.04382324,0.28851318,-0.03027344,0.20654297,0.94384766,-0.125,-0.5,0.5625,1.16315E+33,1.16315E+33,0,
6.76023912,0,-2,-5,0,-2,-1,1,0,0,0.95129395,0.09918213,0.04382324,0.28851318,-0.02734375,0.20703125,0.93359375,-0.1875,-0.3125,0.9375,1.16315E+33,1.16315E+33,0,
6.7711699,0,-2,-5,0,-2,-1,1,0,0,0.95129395,0.09918213,0.04382324,0.28851318,-0.02734375,0.20703125,0.93359375,-0.1875,-0.3125,0.9375,1.16315E+33,1.16315E+33,0,
6.78181601,2,0,0,-2,-1,-2,1,-1,0,0.95123291,0.09924316,0.04388428,0.28869629,-0.02832031,0.21289062,0.93212891,-0.3125,-0.0625,1.1875,1.16315E+33,1.16315E+33,0,
6.79301381,0,-5,1,0,1,0,0,1,0,0.95117188,0.09906006,0.04388428,0.28887939,-0.03320312,0.20898438,0.94580078,-1.375,0.125,1,1.16315E+33,1.16315E+33,0,
6.80390739,2,-7,-5,0,1,-1,-4,-2,0,0.95117188,0.09906006,0.04388428,0.28887939,-0.03320312,0.20898438,0.94580078,-1.375,0.125,1,1.16315E+33,1.16315E+33,0,
6.81465006,0,-1,3,0,0,-1,2,0,0,0.95117188,0.09906006,0.04388428,0.28887939,-0.03320312,0.20898438,0.94580078,-1.375,0.125,1,1.16315E+33,1.16315E+33,0,
6.82537127,-2,18,0,-4,-2,0,-2,-1,0,0.95117188,0.09899902,0.04394531,0.28887939,-0.03613281,0.203125,0.9375,-0.0625,0,0.625,1.16315E+33,1.16315E+33,0,
6.83625174,-3,-18,-5,-1,0,-1,7,0,0,0.95117188,0.09906006,0.04394531,0.28887939,-0.03515625,0.21240234,0.94042969,-0.5,-0.125,0.25,1.16315E+33,1.16315E+33,0,
6.8477931,-3,-2,3,-2,-3,0,-4,0,0,0.95117188,0.09906006,0.04394531,0.28887939,-0.03515625,0.21240234,0.94042969,-0.5,-0.125,0.25,1.16315E+33,1.16315E+33,0,
6.85859919,-3,-2,3,-2,-3,0,-4,0,0,0.95117188,0.09906006,0.04394531,0.28887939,-0.03515625,0.21240234,0.94042969,-0.5,-0.125,0.25,1.16315E+33,1.16315E+33,0,
6.86922765,1,-7,1,1,0,0,-3,0,0,0.95117188,0.09899902,0.04400635,0.28887939,-0.03515625,0.20214844,0.93847656,-1,-0.25,0.375,1.16315E+33,1.16315E+33,0,
6.88006115,1,-7,1,1,0,0,-3,0,0,0.95117188,0.09899902,0.04400635,0.28887939,-0.03222656,0.19677734,0.93896484,0.125,-0.625,0.25,1.16315E+33,1.16315E+33,0,
6.89080024,3,-1,-2,0,-2,-2,0,-1,0,0.95117188,0.09899902,0.04400635,0.28887939,-0.03222656,0.19677734,0.93896484,0.125,-0.625,0.25,1.16315E+33,1.16315E+33,0,
6.90160346,1,-3,2,-2,0,-1,-1,0,0,0.95117188,0.09893799,0.04400635,0.28887939,-0.03466797,0.19921875,0.93212891,0.875,-0.8125,0,1.16315E+33,1.16315E+33,0,
6.91257215,3,1,0,2,-1,0,0,-1,0,0.95117188,0.09893799,0.04400635,0.28887939,-0.03466797,0.19921875,0.93212891,0.875,-0.8125,0,1.16315E+33,1.16315E+33,0,
6.92341256,3,1,0,2,-1,0,0,-1,0,0.95117188,0.09912109,0.04388428,0.28881836,-0.03027344,0.20361328,0.93457031,0.75,-1.3125,-0.1875,1.16315E+33,1.16315E+33,0,
6.93418074,-1,7,-7,-1,1,-2,-2,-3,0,0.95117188,0.09912109,0.04388428,0.28881836,-0.03027344,0.20361328,0.93457031,0.75,-1.3125,-0.1875,1.16315E+33,1.16315E+33,0,
6.94501996,-2,-4,-3,0,1,-2,0,-1,0,0.95117188,0.09918213,0.04364014,0.28881836,-0.02587891,0.20458984,0.94335938,-0.25,-1.625,0.4375,1.16315E+33,1.16315E+33,0,
6.95588613,0,2,3,-3,0,0,-2,-2,0,0.95117188,0.09924316,0.04333496,0.28887939,-0.02734375,0.203125,0.93896484,0.125,-1.9375,0.5625,1.16315E+33,1.16315E+33,0,
6.96690464,5,-13,-2,1,0,0,1,2,0,0.95117188,0.09924316,0.04333496,0.28887939,-0.02734375,0.203125,0.93896484,0.125,-1.9375,0.5625,1.16315E+33,1.16315E+33,0,
6.97783017,5,-13,-2,1,0,0,1,2,0,0.95111084,0.09954834,0.04315186,0.28894043,-0.02734375,0.20263672,0.94189453,1.5625,-1.625,0.4375,1.16315E+33,1.16315E+33,0,
6.98869324,5,-13,-2,1,0,0,1,2,0,0.95111084,0.09954834,0.04315186,0.28894043,-0.02734375,0.20263672,0.94189453,1.5625,-1.625,0.4375,1.16315E+33,1.16315E+33,0,
6.99933887,5,-13,-2,1,0,0,1,2,0,0.95111084,0.09954834,0.04315186,0.28894043,-0.02734375,0.20263672,0.94189453,1.5625,-1.625,0.4375,1.16315E+33,1.16315E+33,0,
7.00984645,-1,8,-1,0,0,0,0,1,0,0.95111084,0.09954834,0.04315186,0.28894043,-0.02734375,0.20263672,0.94189453,1.5625,-1.625,0.4375,1.16315E+33,1.16315E+33,0,
7.02024579,1,-4,-2,-2,-1,0,-2,-3,0,0.95111084,0.09985352,0.04309082,0.28894043,-0.02539062,0.20703125,0.93896484,1.625,-1.0625,0.25,1.16315E+33,1.16315E+33,0,
7.03072739,-2,-1,-1,0,1,0,1,-1,0,0.95111084,0.09985352,0.04309082,0.28894043,-0.02246094,0.20996094,0.94287109,0.25,-0.9375,0.3125,1.16315E+33,1.16315E+33,0,
7.04121876,0,7,-7,0,-1,-3,-2,-1,0,0.95111084,0.09985352,0.04309082,0.28894043,-0.02685547,0.20996094,0.94628906,-0.625,-1,0.6875,1.16315E+33,1.16315E+33,0,
7.05168414,2,3,-2,1,1,1,0,2,0,0.95111084,0.09985352,0.04309082,0.28894043,-0.02685547,0.20996094,0.94628906,-0.625,-1,0.6875,1.16315E+33,1.16315E+33,0,
7.06211567,-1,5,-1,-3,-2,-2,-12,-3,0,0.95111084,0.09985352,0.04309082,0.28894043,-0.02685547,0.20996094,0.94628906,-0.625,-1,0.6875,1.16315E+33,1.16315E+33,0,
7.07264614,-6,-11,1,0,-1,0,-2,-2,0,0.9510498,0.09991455,0.04296875,0.2890625,-0.02685547,0.20703125,0.93359375,-0.0625,-1.0625,0.8125,1.16315E+33,1.16315E+33,0,
7.08330226,-6,-11,1,0,-1,0,-2,-2,0,0.9510498,0.09997559,0.04296875,0.2890625,-0.02587891,0.21240234,0.93945312,0.125,-0.5,0.6875,1.16315E+33,1.16315E+33,0,
7.09374571,0,0,-1,0,0,-2,-1,1,0,0.9510498,0.09997559,0.04296875,0.2890625,-0.01904297,0.21386719,0.93945312,-0.5,-0.125,0.625,1.16315E+33,1.16315E+33,0,
7.10430694,-1,-1,7,-4,0,-2,0,-2,0,0.9510498,0.09997559,0.04296875,0.2890625,-0.01904297,0.21386719,0.93945312,-0.5,-0.125,0.625,1.16315E+33,1.16315E+33,0,
7.11476398,3,15,7,4,3,0,3,3,0,0.9510498,0.09997559,0.04296875,0.2890625,-0.01904297,0.21386719,0.93945312,-0.5,-0.125,0.625,1.16315E+33,1.16315E+33,0,
7.12529349,3,5,3,-2,-3,-1,0,-3,0,0.9510498,0.09997559,0.04296875,0.2890625,-0.02490234,0.21044922,0.94726562,0.3125,-0.1875,0.8125,1.16315E+33,1.16315E+33,0,
7.1358006,3,5,3,-2,-3,-1,0,-3,0,0.9510498,0.09997559,0.04296875,0.2890625,-0.02490234,0.21044922,0.94726562,0.3125,-0.1875,0.8125,1.16315E+33,1.16315E+33,0,
7.14616227,-2,7,-3,-3,-3,-2,-4,-3,0,0.95098877,0.10015869,0.04296875,0.28924561,-0.02246094,0.21630859,0.94238281,0.25,-0.375,1.0625,1.16315E+33,1.16315E+33,0,
7.15659475,-3,-18,-4,-2,-2,-3,-1,-2,0,0.95098877,0.10015869,0.04296875,0.28924561,-0.02783203,0.21582031,0.94091797,0.4375,0.0625,0.6875,1.16315E+33,1.16315E+33,0,
7.16701674,-3,-18,-4,-2,-2,-3,-1,-2,0,0.95098877,0.10015869,0.04296875,0.28924561,-0.02783203,0.21582031,0.94091797,0.4375,0.0625,0.6875,1.16315E+33,1.16315E+33,0,
7.17737794,1,1,0,0,3,-1,0,2,0,0.95098877,0.10021973,0.04302979,0.28924561,-0.03320312,0.22558594,0.93505859,0.6875,0.1875,0.25,1.16315E+33,1.16315E+33,0,
7.18786478,-5,-30,-10,-2,-1,-2,-2,-1,0,0.95098877,0.10021973,0.04302979,0.28924561,-0.03320312,0.22558594,0.93505859,0.6875,0.1875,0.25,1.16315E+33,1.16315E+33,0,
7.19831467,-5,15,-2,-4,-5,-3,-3,-4,0,0.95098877,0.10028076,0.04302979,0.28918457,-0.03369141,0.22216797,0.93945312,-0.4375,0.75,-0.0625,1.16315E+33,1.16315E+33,0,
7.20876956,-1,4,-2,0,0,2,1,0,0,0.95098877,0.10028076,0.04302979,0.28918457,-0.03369141,0.22216797,0.93945312,-0.4375,0.75,-0.0625,1.16315E+33,1.16315E+33,0,
7.21918201,-1,4,-2,0,0,2,1,0,0,0.95098877,0.10028076,0.04302979,0.28918457,-0.03369141,0.22216797,0.93945312,-0.4375,0.75,-0.0625,1.16315E+33,1.16315E+33,0,
7.22952747,0,2,2,1,-1,0,1,0,0,0.95098877,0.10028076,0.04309082,0.28918457,-0.03076172,0.21240234,0.92871094,0.5,0.5625,-0.3125,1.16315E+33,1.16315E+33,0,
7.23998666,0,2,2,1,-1,0,1,0,0,0.95098877,0.10028076,0.04309082,0.28918457,-0.03076172,0.21240234,0.92871094,0.5,0.5625,-0.3125,1.16315E+33,1.16315E+33,0,
7.25033593,0,2,2,1,-1,0,1,0,0,0.95098877,0.10028076,0.04309082,0.28918457,-0.03076172,0.21240234,0.92871094,0.5,0.5625,-0.3125,1.16315E+33,1.16315E+33,0,
7.26068592,5,15,6,3,0,1,3,4,0,0.95098877,0.10028076,0.04309082,0.28918457,-0.02880859,0.21289062,0.93310547,0.4375,0.1875,-0.5,1.16315E+33,1.16315E+33,0,
7.27114272,0,6,0,-2,-3,-1,-2,-1,0,0.95098877,0.10028076,0.04309082,0.28918457,-0.02832031,0.21240234,0.93359375,-0.5,-0.625,-0.75,1.16315E+33,1.16315E+33,0,
7.28160739,0,6,0,-2,-3,-1,-2,-1,0,0.95098877,0.10028076,0.04309082,0.28918457,-0.02832031,0.21240234,0.93359375,-0.5,-0.625,-0.75,1.16315E+33,1.16315E+33,0,
7.29194951,-3,1,-6,-2,1,-1,0,-2,0,0.95098877,0.10040283,0.04296875,0.2890625,-0.02734375,0.21435547,0.93408203,-0.25,-1.25,-0.75,1.16315E+33,1.16315E+33,0,
7.30254912,0,0,7,0,0,-1,9,2,0,0.9510498,0.10058594,0.04278564,0.28894043,-0.02294922,0.21630859,0.92529297,-0.125,-1.5625,-0.5625,1.16315E+33,1.16315E+33,0,
7.31301832,-2,-3,-7,-2,1,-1,-2,-2,0,0.9510498,0.10070801,0.04260254,0.28887939,-0.02441406,0.20605469,0.93603516,0.125,-1.5625,-0.375,1.16315E+33,1.16315E+33,0,
7.3234787,-2,-3,-7,-2,1,-1,-2,-2,0,0.9510498,0.10070801,0.04260254,0.28887939,-0.02441406,0.20605469,0.93603516,0.125,-1.5625,-0.375,1.16315E+33,1.16315E+33,0,
7.33381271,0,-1,4,-1,-1,-1,1,1,0,0.95111084,0.10095215,0.04248047,0.28863525,-0.02685547,0.20166016,0.93115234,1.5625,-1.625,-1,1.16315E+33,1.16315E+33,0,
7.34426188,0,-1,4,-1,-1,-1,1,1,0,0.95111084,0.10095215,0.04248047,0.28863525,-0.02685547,0.20166016,0.93115234,1.5625,-1.625,-1,1.16315E+33,1.16315E+33,0,
7.35460925,-8,33,-3,-4,-3,-2,-5,-5,0,0.95111084,0.10095215,0.04248047,0.28863525,-0.02685547,0.20166016,0.93115234,1.5625,-1.625,-1,1.16315E+33,1.16315E+33,0,
7.36503267,2,-1,-1,-1,0,0,2,1,0,0.95111084,0.10137939,0.0423584,0.28839111,-0.02099609,0.21484375,0.93994141,1.875,-1.625,-1.25,1.16315E+33,1.16315E+33,0,
7.37551165,4,-4,3,-1,-1,-1,-2,0,0,0.95117188,0.10144043,0.04211426,0.28826904,-0.02441406,0.21484375,0.93701172,-0.5,-1.8125,-0.8125,1.16315E+33,1.16315E+33,0,
7.38594294,2,20,1,1,0,-1,0,-1,0,0.95117188,0.10144043,0.04211426,0.28826904,-0.02441406,0.21484375,0.93701172,-0.5,-1.8125,-0.8125,1.16315E+33,1.16315E+33,0,
7.39633298,2,20,1,1,0,-1,0,-1,0,0.95129395,0.10125732,0.04168701,0.28808594,-0.01757812,0.20507812,0.93798828,-1.5,-1.75,-0.875,1.16315E+33,1.16315E+33,0,
7.40674472,2,3,-1,1,0,-1,-2,-1,0,0.95129395,0.10125732,0.04168701,0.28808594,-0.01757812,0.20507812,0.93798828,-1.5,-1.75,-0.875,1.16315E+33,1.16315E+33,0,
7.41716886,-1,-21,-10,1,2,2,2,1,0,0.95135498,0.10113525,0.04125977,0.28796387,-0.01367188,0.19287109,0.94433594,-0.625,-1.9375,-0.75,1.16315E+33,1.16315E+33,0,
7.42767024,2,12,-7,0,-1,-2,-1,-1,0,0.95135498,0.10113525,0.04125977,0.28796387,-0.01367188,0.19287109,0.94433594,-0.625,-1.9375,-0.75,1.16315E+33,1.16315E+33,0,
7.43814802,0,1,-5,0,-1,0,-2,1,0,0.95135498,0.10125732,0.04095459,0.28790283,-0.01513672,0.20117188,0.95019531,0.75,-1.625,-0.375,1.16315E+33,1.16315E+33,0,
7.4485929,2,-15,7,-2,-2,-1,-3,-1,0,0.95135498,0.10125732,0.04095459,0.28790283,-0.01513672,0.20117188,0.95019531,0.75,-1.625,-0.375,1.16315E+33,1.16315E+33,0,
7.45903373,-2,-14,2,-5,-1,-1,0,-4,0,0.95135498,0.10150146,0.04077148,0.2878418,-0.02001953,0.22070312,0.94287109,0.25,-1.5625,-0.25,1.16315E+33,1.16315E+33,0,
7.46951151,-2,-14,2,-5,-1,-1,0,-4,0,0.95135498,0.10150146,0.04077148,0.2878418,-0.02001953,0.22070312,0.94287109,0.25,-1.5625,-0.25,1.16315E+33,1.16315E+33,0,
7.479882,-4,-5,-5,-1,0,-2,0,-2,0,0.95135498,0.10150146,0.04077148,0.2878418,-0.02001953,0.22070312,0.94287109,0.25,-1.5625,-0.25,1.16315E+33,1.16315E+33,0,
7.49029493,1,4,3,-1,-1,0,0,-2,0,0.95141602,0.10137939,0.04071045,0.2878418,-0.02636719,0.21533203,0.94873047,-1.25,-0.8125,0.125,1.16315E+33,1.16315E+33,0,
7.50078154,-3,-9,2,1,1,-1,-2,-2,0,0.95141602,0.10137939,0.04071045,0.2878418,-0.02441406,0.21289062,0.94921875,-0.6875,-0.25,-0.3125,1.16315E+33,1.16315E+33,0,
7.51127243,0,-7,3,2,1,-1,-1,-1,0,0.95141602,0.10137939,0.04071045,0.2878418,-0.02441406,0.21289062,0.94921875,-0.6875,-0.25,-0.3125,1.16315E+33,1.16315E+33,0,
7.52166271,1,0,-1,2,1,0,0,1,0,0.95141602,0.10119629,0.04083252,0.28771973,-0.02832031,0.21630859,0.94775391,-1.0625,0.375,-0.8125,1.16315E+33,1.16315E+33,0,
7.5321393,0,3,3,-5,-3,0,-2,-1,0,0.95141602,0.10119629,0.04083252,0.28771973,-0.02832031,0.21630859,0.94775391,-1.0625,0.375,-0.8125,1.16315E+33,1.16315E+33,0,
7.54262042,0,3,3,-5,-3,0,-2,-1,0,0.95141602,0.10119629,0.04083252,0.28771973,-0.02832031,0.21630859,0.94775391,-1.0625,0.375,-0.8125,1.16315E+33,1.16315E+33,0,
7.55298185,-1,-18,-5,-3,-1,-1,-5,-2,0,0.95141602,0.10119629,0.04089355,0.28771973,-0.03417969,0.21240234,0.95117188,-0.625,0.875,-0.5625,1.16315E+33,1.16315E+33,0,
7.5634594,2,-5,-1,-1,-3,-2,1,-2,0,0.95147705,0.10113525,0.04125977,0.28759766,-0.03125,0.21435547,0.95166016,-0.125,1.125,-0.5625,1.16315E+33,1.16315E+33,0,
7.57391071,0,-5,-5,2,1,-1,-2,-1,0,0.95147705,0.10113525,0.04125977,0.28759766,-0.03125,0.21435547,0.95166016,-0.125,1.125,-0.5625,1.16315E+33,1.16315E+33,0,
7.58431125,-5,-2,0,-2,0,-3,-2,-3,0,0.95147705,0.10101318,0.04150391,0.28747559,-0.02587891,0.22070312,0.95019531,-1,1.0625,-0.9375,1.16315E+33,1.16315E+33,0,
7.59477735,-1,10,-1,-1,-1,-1,1,0,0,0.95147705,0.10101318,0.04150391,0.28747559,-0.02587891,0.22070312,0.95019531,-1,1.0625,-0.9375,1.16315E+33,1.16315E+33,0,
7.60518646,-3,15,-9,-4,-1,-2,-3,-1,0,0.95153809,0.10070801,0.04168701,0.28735352,-0.02636719,0.20898438,0.93896484,-1.625,1.125,-0.9375,1.16315E+33,1.16315E+33,0,
7.61563468,0,-1,10,-1,-1,0,-4,0,0,0.95159912,0.10028076,0.04193115,0.28729248,-0.03076172,0.20654297,0.94726562,-1.6875,1.4375,-0.6875,1.16315E+33,1.16315E+33,0,
7.62610698,4,-5,1,0,0,1,-1,-1,0,0.95159912,0.10028076,0.04193115,0.28729248,-0.03076172,0.20654297,0.94726562,-1.6875,1.4375,-0.6875,1.16315E+33,1.16315E+33,0,
7.63652253,-3,7,-9,-4,-2,0,-8,-4,0,0.95159912,0.10028076,0.04193115,0.28729248,-0.03076172,0.20654297,0.94726562,-1.6875,1.4375,-0.6875,1.16315E+33,1.16315E+33,0,
7.6469841,0,2,0,0,-2,-2,-2,-1,0,0.95166016,0.09991455,0.04241943,0.28723145,-0.03173828,0.20751953,0.93310547,-1.375,2.25,-0.625,1.16315E+33,1.16315E+33,0,
7.65745735,-2,-2,1,-1,-1,0,0,-1,0,0.95166016,0.09991455,0.04241943,0.28723145,-0.03173828,0.20751953,0.93310547,-1.375,2.25,-0.625,1.16315E+33,1.16315E+33,0,
7.66788721,0,-5,-4,-1,-1,0,-2,1,0,0.95166016,0.09960938,0.04284668,0.28717041,-0.03759766,0.19824219,0.93603516,-0.5625,2,-0.625,1.16315E+33,1.16315E+33,0,
7.67835164,4,-6,1,-2,-1,0,0,1,0,0.95172119,0.09942627,0.04315186,0.28704834,-0.02783203,0.20361328,0.93603516,-0.625,1.625,-0.9375,1.16315E+33,1.16315E+33,0,
7.68879032,4,-6,1,-2,-1,0,0,1,0,0.95172119,0.09942627,0.04315186,0.28704834,-0.02783203,0.20361328,0.93603516,-0.625,1.625,-0.9375,1.16315E+33,1.16315E+33,0,
7.69915175,0,-16,-7,-2,-1,0,3,1,0,0.95178223,0.09918213,0.043396,0.28692627,-0.03222656,0.20556641,0.93457031,-0.875,1.125,-0.8125,1.16315E+33,1.16315E+33,0,
7.70970488,-6,-10,-7,-2,-1,-1,-2,-3,0,0.95178223,0.09918213,0.043396,0.28692627,-0.03222656,0.20556641,0.93457031,-0.875,1.125,-0.8125,1.16315E+33,1.16315E+33,0,
7.72053576,-6,-10,-7,-2,-1,-1,-2,-3,0,0.95178223,0.09881592,0.04351807,0.28692627,-0.02832031,0.20166016,0.93554688,-1.625,0.75,-0.25,1.16315E+33,1.16315E+33,0,
7.73134232,-2,-8,-6,-2,-1,-1,-3,-2,0,0.95178223,0.09881592,0.04351807,0.28692627,-0.02832031,0.20166016,0.93554688,-1.625,0.75,-0.25,1.16315E+33,1.16315E+33,0,
7.74216127,-2,-2,-2,-3,-3,-2,1,-3,0,0.95184326,0.09844971,0.0435791,0.28692627,-0.02783203,0.18847656,0.93261719,-1,1.0625,0,1.16315E+33,1.16315E+33,0,
7.75309658,-2,-2,-2,-3,-3,-2,1,-3,0,0.95184326,0.09844971,0.0435791,0.28692627,-0.02783203,0.18847656,0.93261719,-1,1.0625,0,1.16315E+33,1.16315E+33,0,
7.76375055,-2,-2,-2,-3,-3,-2,1,-3,0,0.95184326,0.09844971,0.0435791,0.28692627,-0.02783203,0.18847656,0.93261719,-1,1.0625,0,1.16315E+33,1.16315E+33,0,
7.77439189,2,6,-3,0,-1,0,-2,0,0,0.95184326,0.09838867,0.04382324,0.28692627,-0.02978516,0.19873047,0.94384766,0.5,1,-0.125,1.16315E+33,1.16315E+33,0,
7.78528786,-3,-13,-3,-3,-2,-2,-1,0,0,0.95184326,0.09838867,0.04388428,0.28692627,-0.03466797,0.20751953,0.92578125,-0.0625,0.625,0.25,1.16315E+33,1.16315E+33,0,
7.79607844,-3,-13,-3,-3,-2,-2,-1,0,0,0.95184326,0.09838867,0.04388428,0.28692627,-0.03466797,0.20751953,0.92578125,-0.0625,0.625,0.25,1.16315E+33,1.16315E+33,0,
7.80673504,-1,-21,-10,-2,-1,0,2,-1,0,0.95184326,0.09838867,0.04388428,0.28692627,-0.03125,0.20361328,0.92822266,-0.4375,0.5,0.4375,1.16315E+33,1.16315E+33,0,
7.81757355,1,-2,0,1,0,-1,1,-1,0,0.95184326,0.09838867,0.04388428,0.28692627,-0.03125,0.20361328,0.92822266,-0.4375,0.5,0.4375,1.16315E+33,1.16315E+33,0,
7.82808232,1,-2,0,1,0,-1,1,-1,0,0.95184326,0.09838867,0.04388428,0.28692627,-0.03027344,0.20507812,0.93164062,-0.375,0.25,0.3125,1.16315E+33,1.16315E+33,0,
7.8385365,-1,9,10,0,0,0,-2,-1,0,0.95184326,0.09838867,0.04388428,0.28692627,-0.03027344,0.20507812,0.93164062,-0.375,0.25,0.3125,1.16315E+33,1.16315E+33,0,
7.84899116,-4,-17,6,-1,-1,0,-1,-1,0,0.95184326,0.09838867,0.04388428,0.28692627,-0.03564453,0.20507812,0.93505859,0.25,0.125,0.1875,1.16315E+33,1.16315E+33,0,
7.85946727,-1,10,-6,1,-2,-1,3,0,0,0.95184326,0.09838867,0.04394531,0.28692627,-0.03466797,0.20214844,0.93066406,0.25,0.125,0.125,1.16315E+33,1.16315E+33,0,
7.86997199,-2,20,-2,-4,-3,-2,0,-2,0,0.95184326,0.09838867,0.04394531,0.28692627,-0.03466797,0.20214844,0.93066406,0.25,0.125,0.125,1.16315E+33,1.16315E+33,0,
7.88035965,0,20,2,0,-2,-1,-3,-3,0,0.95184326,0.09844971,0.04394531,0.28692627,-0.02929688,0.21386719,0.93261719,0.8125,0.25,-0.0625,1.16315E+33,1.16315E+33,0,
7.89081693,0,10,1,-1,-2,0,-1,0,0,0.95184326,0.09844971,0.04394531,0.28692627,-0.02929688,0.21386719,0.93261719,0.8125,0.25,-0.0625,1.16315E+33,1.16315E+33,0,
7.90119481,-1,-11,-10,-1,1,-1,-1,-2,0,0.95184326,0.09844971,0.04394531,0.28692627,-0.02783203,0.21484375,0.93261719,-0.4375,-0.125,0.25,1.16315E+33,1.16315E+33,0,
7.9116478,3,15,4,2,0,0,0,1,0,0.95184326,0.09844971,0.04394531,0.28692627,-0.02783203,0.21484375,0.93261719,-0.4375,-0.125,0.25,1.16315E+33,1.16315E+33,0,
7.92208838,-2,0,7,-2,-4,-2,-2,-2,0,0.95184326,0.09844971,0.04394531,0.28692627,-0.02783203,0.21484375,0.93261719,-0.4375,-0.125,0.25,1.16315E+33,1.16315E+33,0,
7.93258309,1,-7,5,-4,-3,-2,-1,-2,0,0.95184326,0.09844971,0.04400635,0.28692627,-0.03564453,0.203125,0.93945312,-0.625,-0.25,0.1875,1.16315E+33,1.16315E+33,0,
7.94305682,1,-7,5,-4,-3,-2,-1,-2,0,0.95184326,0.09844971,0.04400635,0.28692627,-0.03564453,0.203125,0.93945312,-0.625,-0.25,0.1875,1.16315E+33,1.16315E+33,0,
7.95340323,-1,-3,-3,-2,0,-1,1,0,0,0.95184326,0.09844971,0.04400635,0.28692627,-0.03076172,0.21044922,0.93847656,0.9375,-0.3125,-0.125,1.16315E+33,1.16315E+33,0,
7.9640069,-5,7,1,0,1,-1,-5,-2,0,0.95184326,0.09851074,0.04400635,0.28692627,-0.03076172,0.21142578,0.93212891,0.625,-0.0625,0.0625,1.16315E+33,1.16315E+33,0,
7.97447848,2,5,3,0,0,1,1,1,0,0.95184326,0.09851074,0.04406738,0.28692627,-0.03466797,0.2109375,0.93994141,0.5625,-0.4375,0.125,1.16315E+33,1.16315E+33,0,
7.98494244,0,9,0,0,0,0,-1,-2,0,0.95184326,0.09851074,0.04406738,0.28692627,-0.03466797,0.2109375,0.93994141,0.5625,-0.4375,0.125,1.16315E+33,1.16315E+33,0,
7.99535775,0,9,0,0,0,0,-1,-2,0,0.95184326,0.09851074,0.04406738,0.28692627,-0.03613281,0.20996094,0.93603516,0,-0.0625,0,1.16315E+33,1.16315E+33,0,
